prolific_id,experiment,counterbalancing,rt,stimulus,response,trial_stage,trial_index,time_elapsed,cb_condition,correct_response,session,correct,stim_val,dist_from_prev,dist_abs_from_prev
sub_58,1,dense_right,2283.5,img/object-9_120-levels_1D/object9F0Level61F1Level40.png,q,exemplar_display,2,11496,dense_right,,1,,62,,
sub_58,1,dense_right,2231.6,img/object-9_120-levels_1D/object9F0Level95F1Level40.png,q,exemplar_display,4,14232,dense_right,p,1,FALSE,96,34,34
sub_58,1,dense_right,1879.2,img/object-9_120-levels_1D/object9F0Level101F1Level40.png,q,exemplar_display,6,16738,dense_right,p,1,FALSE,102,6,6
sub_58,1,dense_right,1674.9,img/object-9_120-levels_1D/object9F0Level87F1Level40.png,q,exemplar_display,8,19246,dense_right,p,1,FALSE,88,-14,14
sub_58,1,dense_right,1751.8,img/object-9_120-levels_1D/object9F0Level81F1Level40.png,q,exemplar_display,10,21756,dense_right,p,1,FALSE,82,-6,6
sub_58,1,dense_right,1057.2,img/object-9_120-levels_1D/object9F0Level69F1Level40.png,p,exemplar_display,12,24261,dense_right,p,1,TRUE,70,-12,12
sub_58,1,dense_right,1303.8,img/object-9_120-levels_1D/object9F0Level79F1Level40.png,p,exemplar_display,14,26769,dense_right,p,1,TRUE,80,10,10
sub_58,1,dense_right,1331.7,img/object-9_120-levels_1D/object9F0Level79F1Level40.png,q,exemplar_display,16,29277,dense_right,q,1,TRUE,80,0,0
sub_58,1,dense_right,624.3,img/object-9_120-levels_1D/object9F0Level75F1Level40.png,q,exemplar_display,18,31791,dense_right,p,1,FALSE,76,-4,4
sub_58,1,dense_right,822.6,img/object-9_120-levels_1D/object9F0Level89F1Level40.png,q,exemplar_display,20,34299,dense_right,p,1,FALSE,90,14,14
sub_58,1,dense_right,826.5,img/object-9_120-levels_1D/object9F0Level77F1Level40.png,q,exemplar_display,22,36808,dense_right,p,1,FALSE,78,-12,12
sub_58,1,dense_right,629.4,img/object-9_120-levels_1D/object9F0Level85F1Level40.png,q,exemplar_display,24,39316,dense_right,p,1,FALSE,86,8,8
sub_58,1,dense_right,922.2,img/object-9_120-levels_1D/object9F0Level45F1Level40.png,p,exemplar_display,26,41822,dense_right,p,1,TRUE,46,-40,40
sub_58,1,dense_right,782.2,img/object-9_120-levels_1D/object9F0Level107F1Level40.png,q,exemplar_display,28,44330,dense_right,p,1,FALSE,108,62,62
sub_58,1,dense_right,650,img/object-9_120-levels_1D/object9F0Level95F1Level40.png,q,exemplar_display,30,46837,dense_right,p,1,FALSE,96,-12,12
sub_58,1,dense_right,1308.5,img/object-9_120-levels_1D/object9F0Level93F1Level40.png,q,exemplar_display,32,49345,dense_right,p,1,FALSE,94,-2,2
sub_58,1,dense_right,1015.7,img/object-9_120-levels_1D/object9F0Level73F1Level40.png,p,exemplar_display,34,51858,dense_right,p,1,TRUE,74,-20,20
sub_58,1,dense_right,1057.3,img/object-9_120-levels_1D/object9F0Level73F1Level40.png,q,exemplar_display,36,54366,dense_right,q,1,TRUE,74,0,0
sub_58,1,dense_right,829.6,img/object-9_120-levels_1D/object9F0Level45F1Level40.png,p,exemplar_display,38,56873,dense_right,p,1,TRUE,46,-28,28
sub_58,1,dense_right,657.4,img/object-9_120-levels_1D/object9F0Level29F1Level40.png,p,exemplar_display,40,59381,dense_right,p,1,TRUE,30,-16,16
sub_58,1,dense_right,1030.4,img/object-9_120-levels_1D/object9F0Level53F1Level40.png,q,exemplar_display,42,61889,dense_right,p,1,FALSE,54,24,24
sub_58,1,dense_right,1594.2,img/object-9_120-levels_1D/object9F0Level53F1Level40.png,q,exemplar_display,44,64397,dense_right,q,1,TRUE,54,0,0
sub_58,1,dense_right,670.7,img/object-9_120-levels_1D/object9F0Level93F1Level40.png,p,exemplar_display,46,66904,dense_right,p,1,TRUE,94,40,40
sub_58,1,dense_right,877.7,img/object-9_120-levels_1D/object9F0Level95F1Level40.png,q,exemplar_display,48,69412,dense_right,p,1,FALSE,96,2,2
sub_58,1,dense_right,496.7,img/object-9_120-levels_1D/object9F0Level95F1Level40.png,q,exemplar_display,50,71926,dense_right,q,1,TRUE,96,0,0
sub_58,1,dense_right,462.7,img/object-9_120-levels_1D/object9F0Level95F1Level40.png,q,exemplar_display,52,74433,dense_right,q,1,TRUE,96,0,0
sub_58,1,dense_right,825.6,img/object-9_120-levels_1D/object9F0Level75F1Level40.png,p,exemplar_display,54,76941,dense_right,p,1,TRUE,76,-20,20
sub_58,1,dense_right,877.7,img/object-9_120-levels_1D/object9F0Level75F1Level40.png,p,exemplar_display,56,79452,dense_right,q,1,FALSE,76,0,0
sub_58,1,dense_right,1020.3,img/object-9_120-levels_1D/object9F0Level75F1Level40.png,q,exemplar_display,58,81962,dense_right,q,1,TRUE,76,0,0
sub_58,1,dense_right,880.3,img/object-9_120-levels_1D/object9F0Level61F1Level40.png,p,exemplar_display,60,84470,dense_right,p,1,TRUE,62,-14,14
sub_58,1,dense_right,1037.3,img/object-9_120-levels_1D/object9F0Level101F1Level40.png,p,exemplar_display,62,86976,dense_right,p,1,TRUE,102,40,40
sub_58,1,dense_right,1041.4,img/object-9_120-levels_1D/object9F0Level83F1Level40.png,q,exemplar_display,64,89485,dense_right,p,1,FALSE,84,-18,18
sub_58,1,dense_right,765.3,img/object-9_120-levels_1D/object9F0Level37F1Level40.png,p,exemplar_display,66,91993,dense_right,p,1,TRUE,38,-46,46
sub_58,1,dense_right,913.2,img/object-9_120-levels_1D/object9F0Level37F1Level40.png,p,exemplar_display,68,94500,dense_right,q,1,FALSE,38,0,0
sub_58,1,dense_right,646.9,img/object-9_120-levels_1D/object9F0Level87F1Level40.png,p,exemplar_display,70,97008,dense_right,p,1,TRUE,88,50,50
sub_58,1,dense_right,786.3,img/object-9_120-levels_1D/object9F0Level69F1Level40.png,p,exemplar_display,72,99516,dense_right,p,1,TRUE,70,-18,18
sub_58,1,dense_right,495.6,img/object-9_120-levels_1D/object9F0Level89F1Level40.png,q,exemplar_display,74,102024,dense_right,p,1,FALSE,90,20,20
sub_58,1,dense_right,418.7,img/object-9_120-levels_1D/object9F0Level89F1Level40.png,q,exemplar_display,76,104531,dense_right,q,1,TRUE,90,0,0
sub_58,1,dense_right,718.9,img/object-9_120-levels_1D/object9F0Level61F1Level40.png,p,exemplar_display,78,107039,dense_right,p,1,TRUE,62,-28,28
sub_58,1,dense_right,1002.6,img/object-9_120-levels_1D/object9F0Level89F1Level40.png,q,exemplar_display,80,109547,dense_right,p,1,FALSE,90,28,28
sub_58,1,dense_right,520.2,img/object-9_120-levels_1D/object9F0Level103F1Level40.png,q,exemplar_display,82,112054,dense_right,p,1,FALSE,104,14,14
sub_58,1,dense_right,724.1,img/object-9_120-levels_1D/object9F0Level69F1Level40.png,p,exemplar_display,84,114562,dense_right,p,1,TRUE,70,-34,34
sub_58,1,dense_right,624.7,img/object-9_120-levels_1D/object9F0Level69F1Level40.png,p,exemplar_display,86,117070,dense_right,q,1,FALSE,70,0,0
sub_58,1,dense_right,859.5,img/object-9_120-levels_1D/object9F0Level61F1Level40.png,q,exemplar_display,88,119577,dense_right,p,1,FALSE,62,-8,8
sub_58,1,dense_right,641.8,img/object-9_120-levels_1D/object9F0Level81F1Level40.png,p,exemplar_display,90,122085,dense_right,p,1,TRUE,82,20,20
sub_58,1,dense_right,1116.9,img/object-9_120-levels_1D/object9F0Level81F1Level40.png,q,exemplar_display,92,124593,dense_right,q,1,TRUE,82,0,0
sub_58,1,dense_right,724.2,img/object-9_120-levels_1D/object9F0Level53F1Level40.png,p,exemplar_display,94,127106,dense_right,p,1,TRUE,54,-28,28
sub_58,1,dense_right,670.4,img/object-9_120-levels_1D/object9F0Level77F1Level40.png,p,exemplar_display,96,129614,dense_right,p,1,TRUE,78,24,24
sub_58,1,dense_right,579.8,img/object-9_120-levels_1D/object9F0Level77F1Level40.png,q,exemplar_display,98,132121,dense_right,q,1,TRUE,78,0,0
sub_58,1,dense_right,752.6,img/object-9_120-levels_1D/object9F0Level79F1Level40.png,p,exemplar_display,100,134629,dense_right,p,1,TRUE,80,2,2
sub_58,1,dense_right,676.5,img/object-9_120-levels_1D/object9F0Level75F1Level40.png,q,exemplar_display,102,137137,dense_right,p,1,FALSE,76,-4,4
sub_58,1,dense_right,536.1,img/object-9_120-levels_1D/object9F0Level101F1Level40.png,p,exemplar_display,104,139644,dense_right,p,1,TRUE,102,26,26
sub_58,1,dense_right,1074.2,img/object-9_120-levels_1D/object9F0Level73F1Level40.png,p,exemplar_display,2,15032,dense_right,p,2,,74,-28,28
sub_58,1,dense_right,1299.1,img/object-9_120-levels_1D/object9F0Level75F1Level40.png,q,exemplar_display,4,17540,dense_right,p,2,FALSE,76,2,2
sub_58,1,dense_right,591.3,img/object-9_120-levels_1D/object9F0Level89F1Level40.png,p,exemplar_display,6,20047,dense_right,p,2,TRUE,90,14,14
sub_58,1,dense_right,1169.4,img/object-9_120-levels_1D/object9F0Level105F1Level40.png,q,exemplar_display,8,22555,dense_right,p,2,FALSE,106,16,16
sub_58,1,dense_right,743.7,img/object-9_120-levels_1D/object9F0Level99F1Level40.png,q,exemplar_display,10,25062,dense_right,p,2,FALSE,100,-6,6
sub_58,1,dense_right,468.9,img/object-9_120-levels_1D/object9F0Level99F1Level40.png,q,exemplar_display,12,27570,dense_right,q,2,TRUE,100,0,0
sub_58,1,dense_right,536.6,img/object-9_120-levels_1D/object9F0Level61F1Level40.png,p,exemplar_display,14,30079,dense_right,p,2,TRUE,62,-38,38
sub_58,1,dense_right,514.6,img/object-9_120-levels_1D/object9F0Level89F1Level40.png,p,exemplar_display,16,32590,dense_right,p,2,TRUE,90,28,28
sub_58,1,dense_right,514.2,img/object-9_120-levels_1D/object9F0Level103F1Level40.png,q,exemplar_display,18,35100,dense_right,p,2,FALSE,104,14,14
sub_58,1,dense_right,438.3,img/object-9_120-levels_1D/object9F0Level107F1Level40.png,q,exemplar_display,20,37608,dense_right,p,2,FALSE,108,4,4
sub_58,1,dense_right,482,img/object-9_120-levels_1D/object9F0Level107F1Level40.png,q,exemplar_display,22,40115,dense_right,q,2,TRUE,108,0,0
sub_58,1,dense_right,453.7,img/object-9_120-levels_1D/object9F0Level89F1Level40.png,q,exemplar_display,24,42623,dense_right,p,2,FALSE,90,-18,18
sub_58,1,dense_right,491.7,img/object-9_120-levels_1D/object9F0Level89F1Level40.png,q,exemplar_display,26,45131,dense_right,q,2,TRUE,90,0,0
sub_58,1,dense_right,598.9,img/object-9_120-levels_1D/object9F0Level83F1Level40.png,q,exemplar_display,28,47638,dense_right,p,2,FALSE,84,-6,6
sub_58,1,dense_right,651.2,img/object-9_120-levels_1D/object9F0Level85F1Level40.png,q,exemplar_display,30,50147,dense_right,p,2,FALSE,86,2,2
sub_58,1,dense_right,638.6,img/object-9_120-levels_1D/object9F0Level77F1Level40.png,q,exemplar_display,32,52654,dense_right,p,2,FALSE,78,-8,8
sub_58,1,dense_right,1037.5,img/object-9_120-levels_1D/object9F0Level77F1Level40.png,q,exemplar_display,34,55167,dense_right,q,2,TRUE,78,0,0
sub_58,1,dense_right,618.8,img/object-9_120-levels_1D/object9F0Level29F1Level40.png,p,exemplar_display,36,57675,dense_right,p,2,TRUE,30,-48,48
sub_58,1,dense_right,789.7,img/object-9_120-levels_1D/object9F0Level79F1Level40.png,q,exemplar_display,38,60183,dense_right,p,2,FALSE,80,50,50
sub_58,1,dense_right,1250.1,img/object-9_120-levels_1D/object9F0Level97F1Level40.png,p,exemplar_display,40,62690,dense_right,p,2,TRUE,98,18,18
sub_58,1,dense_right,758.6,img/object-9_120-levels_1D/object9F0Level91F1Level40.png,q,exemplar_display,42,65198,dense_right,p,2,FALSE,92,-6,6
sub_58,1,dense_right,626.9,img/object-9_120-levels_1D/object9F0Level91F1Level40.png,q,exemplar_display,44,67706,dense_right,q,2,TRUE,92,0,0
sub_58,1,dense_right,551.2,img/object-9_120-levels_1D/object9F0Level109F1Level40.png,q,exemplar_display,46,70213,dense_right,p,2,FALSE,110,18,18
sub_58,1,dense_right,612.2,img/object-9_120-levels_1D/object9F0Level103F1Level40.png,q,exemplar_display,48,72727,dense_right,p,2,FALSE,104,-6,6
sub_58,1,dense_right,850.1,img/object-9_120-levels_1D/object9F0Level85F1Level40.png,p,exemplar_display,50,75237,dense_right,p,2,TRUE,86,-18,18
sub_58,1,dense_right,660.3,img/object-9_120-levels_1D/object9F0Level79F1Level40.png,q,exemplar_display,52,77749,dense_right,p,2,FALSE,80,-6,6
sub_58,1,dense_right,892.5,img/object-9_120-levels_1D/object9F0Level71F1Level40.png,q,exemplar_display,54,80256,dense_right,p,2,FALSE,72,-8,8
sub_58,1,dense_right,584.2,img/object-9_120-levels_1D/object9F0Level91F1Level40.png,p,exemplar_display,56,82764,dense_right,p,2,TRUE,92,20,20
sub_58,1,dense_right,748.8,img/object-9_120-levels_1D/object9F0Level101F1Level40.png,q,exemplar_display,58,85271,dense_right,p,2,FALSE,102,10,10
sub_58,1,dense_right,882.1,img/object-9_120-levels_1D/object9F0Level75F1Level40.png,p,exemplar_display,60,87779,dense_right,p,2,TRUE,76,-26,26
sub_58,1,dense_right,685.5,img/object-9_120-levels_1D/object9F0Level75F1Level40.png,q,exemplar_display,62,90287,dense_right,q,2,TRUE,76,0,0
sub_58,1,dense_right,559.8,img/object-9_120-levels_1D/object9F0Level101F1Level40.png,p,exemplar_display,64,92795,dense_right,p,2,TRUE,102,26,26
sub_58,1,dense_right,630.3,img/object-9_120-levels_1D/object9F0Level73F1Level40.png,q,exemplar_display,66,95302,dense_right,p,2,FALSE,74,-28,28
sub_58,1,dense_right,561.7,img/object-9_120-levels_1D/object9F0Level103F1Level40.png,p,exemplar_display,68,97810,dense_right,p,2,TRUE,104,30,30
sub_58,1,dense_right,855.3,img/object-9_120-levels_1D/object9F0Level103F1Level40.png,q,exemplar_display,70,100318,dense_right,q,2,TRUE,104,0,0
sub_58,1,dense_right,634.7,img/object-9_120-levels_1D/object9F0Level97F1Level40.png,q,exemplar_display,72,102825,dense_right,p,2,FALSE,98,-6,6
sub_58,1,dense_right,638.8,img/object-9_120-levels_1D/object9F0Level83F1Level40.png,p,exemplar_display,74,105333,dense_right,p,2,TRUE,84,-14,14
sub_58,1,dense_right,1131.1,img/object-9_120-levels_1D/object9F0Level69F1Level40.png,q,exemplar_display,76,107841,dense_right,p,2,FALSE,70,-14,14
sub_58,1,dense_right,752,img/object-9_120-levels_1D/object9F0Level87F1Level40.png,p,exemplar_display,78,110348,dense_right,p,2,TRUE,88,18,18
sub_58,1,dense_right,587.5,img/object-9_120-levels_1D/object9F0Level97F1Level40.png,q,exemplar_display,80,112856,dense_right,p,2,FALSE,98,10,10
sub_58,1,dense_right,808.3,img/object-9_120-levels_1D/object9F0Level81F1Level40.png,q,exemplar_display,82,115363,dense_right,p,2,FALSE,82,-16,16
sub_58,1,dense_right,556.5,img/object-9_120-levels_1D/object9F0Level53F1Level40.png,p,exemplar_display,84,117871,dense_right,p,2,TRUE,54,-28,28
sub_58,1,dense_right,720.5,img/object-9_120-levels_1D/object9F0Level71F1Level40.png,p,exemplar_display,86,120379,dense_right,p,2,TRUE,72,18,18
sub_58,1,dense_right,575.7,img/object-9_120-levels_1D/object9F0Level73F1Level40.png,p,exemplar_display,88,122893,dense_right,p,2,TRUE,74,2,2
sub_58,1,dense_right,763.6,img/object-9_120-levels_1D/object9F0Level69F1Level40.png,q,exemplar_display,90,125400,dense_right,p,2,FALSE,70,-4,4
sub_58,1,dense_right,512.8,img/object-9_120-levels_1D/object9F0Level85F1Level40.png,p,exemplar_display,92,127908,dense_right,p,2,TRUE,86,16,16
sub_58,1,dense_right,843.9,img/object-9_120-levels_1D/object9F0Level85F1Level40.png,p,exemplar_display,94,130416,dense_right,q,2,FALSE,86,0,0
sub_58,1,dense_right,740,img/object-9_120-levels_1D/object9F0Level77F1Level40.png,p,exemplar_display,96,132923,dense_right,p,2,TRUE,78,-8,8
sub_58,1,dense_right,668.2,img/object-9_120-levels_1D/object9F0Level85F1Level40.png,p,exemplar_display,98,135430,dense_right,p,2,TRUE,86,8,8
sub_58,1,dense_right,704.7,img/object-9_120-levels_1D/object9F0Level97F1Level40.png,p,exemplar_display,100,137939,dense_right,p,2,TRUE,98,12,12
sub_58,1,dense_right,751.4,img/object-9_120-levels_1D/object9F0Level97F1Level40.png,q,exemplar_display,102,140452,dense_right,q,2,TRUE,98,0,0
sub_58,1,dense_right,666.6,img/object-9_120-levels_1D/object9F0Level85F1Level40.png,q,exemplar_display,104,142962,dense_right,p,2,FALSE,86,-12,12
sub_58,1,dense_right,1984.5,img/object-9_120-levels_1D/object9F0Level29F1Level40.png,q,exemplar_display,2,12778,dense_right,p,3,,30,-56,56
sub_58,1,dense_right,1564.1,img/object-9_120-levels_1D/object9F0Level99F1Level40.png,q,exemplar_display,4,15286,dense_right,p,3,FALSE,100,70,70
sub_58,1,dense_right,1576.6,img/object-9_120-levels_1D/object9F0Level79F1Level40.png,q,exemplar_display,6,17793,dense_right,p,3,FALSE,80,-20,20
sub_58,1,dense_right,1035.7,img/object-9_120-levels_1D/object9F0Level101F1Level40.png,p,exemplar_display,8,20301,dense_right,p,3,TRUE,102,22,22
sub_58,1,dense_right,824.9,img/object-9_120-levels_1D/object9F0Level97F1Level40.png,q,exemplar_display,10,22809,dense_right,p,3,FALSE,98,-4,4
sub_58,1,dense_right,875.9,img/object-9_120-levels_1D/object9F0Level99F1Level40.png,q,exemplar_display,12,25322,dense_right,p,3,FALSE,100,2,2
sub_58,1,dense_right,958.8,img/object-9_120-levels_1D/object9F0Level93F1Level40.png,q,exemplar_display,14,27836,dense_right,p,3,FALSE,94,-6,6
sub_58,1,dense_right,641.4,img/object-9_120-levels_1D/object9F0Level93F1Level40.png,q,exemplar_display,16,30345,dense_right,q,3,TRUE,94,0,0
sub_58,1,dense_right,653.3,img/object-9_120-levels_1D/object9F0Level75F1Level40.png,p,exemplar_display,18,32852,dense_right,p,3,TRUE,76,-18,18
sub_58,1,dense_right,1025.3,img/object-9_120-levels_1D/object9F0Level73F1Level40.png,q,exemplar_display,20,35360,dense_right,p,3,FALSE,74,-2,2
sub_58,1,dense_right,789.6,img/object-9_120-levels_1D/object9F0Level69F1Level40.png,p,exemplar_display,22,37868,dense_right,p,3,TRUE,70,-4,4
sub_58,1,dense_right,776.9,img/object-9_120-levels_1D/object9F0Level37F1Level40.png,q,exemplar_display,24,40375,dense_right,p,3,FALSE,38,-32,32
sub_58,1,dense_right,1070.1,img/object-9_120-levels_1D/object9F0Level77F1Level40.png,p,exemplar_display,26,42887,dense_right,p,3,TRUE,78,40,40
sub_58,1,dense_right,756.7,img/object-9_120-levels_1D/object9F0Level95F1Level40.png,p,exemplar_display,28,45396,dense_right,p,3,TRUE,96,18,18
sub_58,1,dense_right,752.9,img/object-9_120-levels_1D/object9F0Level83F1Level40.png,q,exemplar_display,30,47904,dense_right,p,3,FALSE,84,-12,12
sub_58,1,dense_right,964.2,img/object-9_120-levels_1D/object9F0Level105F1Level40.png,p,exemplar_display,32,50412,dense_right,p,3,TRUE,106,22,22
sub_58,1,dense_right,777.1,img/object-9_120-levels_1D/object9F0Level105F1Level40.png,q,exemplar_display,34,52919,dense_right,q,3,TRUE,106,0,0
sub_58,1,dense_right,1196.1,img/object-9_120-levels_1D/object9F0Level75F1Level40.png,p,exemplar_display,36,55427,dense_right,p,3,TRUE,76,-30,30
sub_58,1,dense_right,1162.3,img/object-9_120-levels_1D/object9F0Level81F1Level40.png,p,exemplar_display,38,57935,dense_right,p,3,TRUE,82,6,6
sub_58,1,dense_right,997.6,img/object-9_120-levels_1D/object9F0Level81F1Level40.png,q,exemplar_display,40,60446,dense_right,q,3,TRUE,82,0,0
sub_58,1,dense_right,689.5,img/object-9_120-levels_1D/object9F0Level91F1Level40.png,q,exemplar_display,42,62953,dense_right,p,3,FALSE,92,10,10
sub_58,1,dense_right,551.1,img/object-9_120-levels_1D/object9F0Level101F1Level40.png,q,exemplar_display,44,65469,dense_right,p,3,FALSE,102,10,10
sub_58,1,dense_right,670.3,img/object-9_120-levels_1D/object9F0Level79F1Level40.png,p,exemplar_display,46,67977,dense_right,p,3,TRUE,80,-22,22
sub_58,1,dense_right,691.1,img/object-9_120-levels_1D/object9F0Level69F1Level40.png,q,exemplar_display,48,70486,dense_right,p,3,FALSE,70,-10,10
sub_58,1,dense_right,743.2,img/object-9_120-levels_1D/object9F0Level69F1Level40.png,p,exemplar_display,50,72992,dense_right,q,3,FALSE,70,0,0
sub_58,1,dense_right,627.9,img/object-9_120-levels_1D/object9F0Level107F1Level40.png,p,exemplar_display,52,75500,dense_right,p,3,TRUE,108,38,38
sub_58,1,dense_right,826.4,img/object-9_120-levels_1D/object9F0Level73F1Level40.png,q,exemplar_display,54,78006,dense_right,p,3,FALSE,74,-34,34
sub_58,1,dense_right,531.7,img/object-9_120-levels_1D/object9F0Level73F1Level40.png,q,exemplar_display,56,80516,dense_right,q,3,TRUE,74,0,0
sub_58,1,dense_right,544.7,img/object-9_120-levels_1D/object9F0Level87F1Level40.png,p,exemplar_display,58,83023,dense_right,p,3,TRUE,88,14,14
sub_58,1,dense_right,775.1,img/object-9_120-levels_1D/object9F0Level109F1Level40.png,p,exemplar_display,60,85537,dense_right,p,3,TRUE,110,22,22
sub_58,1,dense_right,593.6,img/object-9_120-levels_1D/object9F0Level91F1Level40.png,p,exemplar_display,62,88050,dense_right,p,3,TRUE,92,-18,18
sub_58,1,dense_right,785.3,img/object-9_120-levels_1D/object9F0Level71F1Level40.png,q,exemplar_display,64,90558,dense_right,p,3,FALSE,72,-20,20
sub_58,1,dense_right,806.7,img/object-9_120-levels_1D/object9F0Level53F1Level40.png,p,exemplar_display,66,93065,dense_right,p,3,TRUE,54,-18,18
sub_58,1,dense_right,1025.7,img/object-9_120-levels_1D/object9F0Level29F1Level40.png,p,exemplar_display,68,95573,dense_right,p,3,TRUE,30,-24,24
sub_58,1,dense_right,734.7,img/object-9_120-levels_1D/object9F0Level109F1Level40.png,p,exemplar_display,70,98083,dense_right,p,3,TRUE,110,80,80
sub_58,1,dense_right,802,img/object-9_120-levels_1D/object9F0Level109F1Level40.png,q,exemplar_display,72,100589,dense_right,q,3,TRUE,110,0,0
sub_58,1,dense_right,526.9,img/object-9_120-levels_1D/object9F0Level105F1Level40.png,q,exemplar_display,74,103096,dense_right,p,3,FALSE,106,-4,4
sub_58,1,dense_right,581.8,img/object-9_120-levels_1D/object9F0Level105F1Level40.png,q,exemplar_display,76,105610,dense_right,q,3,TRUE,106,0,0
sub_58,1,dense_right,665.1,img/object-9_120-levels_1D/object9F0Level53F1Level40.png,p,exemplar_display,78,108117,dense_right,p,3,TRUE,54,-52,52
sub_58,1,dense_right,869.5,img/object-9_120-levels_1D/object9F0Level53F1Level40.png,q,exemplar_display,80,110625,dense_right,q,3,TRUE,54,0,0
sub_58,1,dense_right,889.2,img/object-9_120-levels_1D/object9F0Level97F1Level40.png,p,exemplar_display,82,113133,dense_right,p,3,TRUE,98,44,44
sub_58,1,dense_right,878.8,img/object-9_120-levels_1D/object9F0Level37F1Level40.png,p,exemplar_display,84,115640,dense_right,p,3,TRUE,38,-60,60
sub_58,1,dense_right,498.3,img/object-9_120-levels_1D/object9F0Level109F1Level40.png,p,exemplar_display,86,118152,dense_right,p,3,TRUE,110,72,72
sub_58,1,dense_right,456.4,img/object-9_120-levels_1D/object9F0Level109F1Level40.png,q,exemplar_display,88,120662,dense_right,q,3,TRUE,110,0,0
sub_58,1,dense_right,556.9,img/object-9_120-levels_1D/object9F0Level91F1Level40.png,q,exemplar_display,90,123169,dense_right,p,3,FALSE,92,-18,18
sub_58,1,dense_right,553.6,img/object-9_120-levels_1D/object9F0Level29F1Level40.png,p,exemplar_display,92,125677,dense_right,p,3,TRUE,30,-62,62
sub_58,1,dense_right,902.5,img/object-9_120-levels_1D/object9F0Level29F1Level40.png,p,exemplar_display,94,128185,dense_right,q,3,FALSE,30,0,0
sub_58,1,dense_right,825.3,img/object-9_120-levels_1D/object9F0Level53F1Level40.png,p,exemplar_display,96,130692,dense_right,p,3,TRUE,54,24,24
sub_58,1,dense_right,1190.1,img/object-9_120-levels_1D/object9F0Level99F1Level40.png,p,exemplar_display,98,133200,dense_right,p,3,TRUE,100,46,46
sub_58,1,dense_right,668.9,img/object-9_120-levels_1D/object9F0Level103F1Level40.png,q,exemplar_display,100,135708,dense_right,p,3,FALSE,104,4,4
sub_58,1,dense_right,374.9,img/object-9_120-levels_1D/object9F0Level107F1Level40.png,q,exemplar_display,102,138215,dense_right,p,3,FALSE,108,4,4
sub_58,1,dense_right,698.9,img/object-9_120-levels_1D/object9F0Level45F1Level40.png,p,exemplar_display,104,140723,dense_right,p,3,TRUE,46,-62,62
sub_58,1,dense_right,1499.7,img/object-9_120-levels_1D/object9F0Level85F1Level40.png,p,exemplar_display,2,20326,dense_right,p,4,,86,40,40
sub_58,1,dense_right,1296.3,img/object-9_120-levels_1D/object9F0Level83F1Level40.png,q,exemplar_display,4,22833,dense_right,p,4,FALSE,84,-2,2
sub_58,1,dense_right,596.6,img/object-9_120-levels_1D/object9F0Level29F1Level40.png,p,exemplar_display,6,25341,dense_right,p,4,TRUE,30,-54,54
sub_58,1,dense_right,848,img/object-9_120-levels_1D/object9F0Level29F1Level40.png,q,exemplar_display,8,27853,dense_right,q,4,TRUE,30,0,0
sub_58,1,dense_right,631,img/object-9_120-levels_1D/object9F0Level83F1Level40.png,p,exemplar_display,10,30364,dense_right,p,4,TRUE,84,54,54
sub_58,1,dense_right,530.2,img/object-9_120-levels_1D/object9F0Level95F1Level40.png,q,exemplar_display,12,32871,dense_right,p,4,FALSE,96,12,12
sub_58,1,dense_right,517.6,img/object-9_120-levels_1D/object9F0Level95F1Level40.png,q,exemplar_display,14,35379,dense_right,q,4,TRUE,96,0,0
sub_58,1,dense_right,628.6,img/object-9_120-levels_1D/object9F0Level83F1Level40.png,q,exemplar_display,16,37892,dense_right,p,4,FALSE,84,-12,12
sub_58,1,dense_right,552.9,img/object-9_120-levels_1D/object9F0Level85F1Level40.png,q,exemplar_display,18,40400,dense_right,p,4,FALSE,86,2,2
sub_58,1,dense_right,613.1,img/object-9_120-levels_1D/object9F0Level37F1Level40.png,p,exemplar_display,20,42908,dense_right,p,4,TRUE,38,-48,48
sub_58,1,dense_right,585.9,img/object-9_120-levels_1D/object9F0Level37F1Level40.png,q,exemplar_display,22,45415,dense_right,q,4,TRUE,38,0,0
sub_58,1,dense_right,484.3,img/object-9_120-levels_1D/object9F0Level93F1Level40.png,p,exemplar_display,24,47923,dense_right,p,4,TRUE,94,56,56
sub_58,1,dense_right,618,img/object-9_120-levels_1D/object9F0Level105F1Level40.png,q,exemplar_display,26,50431,dense_right,p,4,FALSE,106,12,12
sub_58,1,dense_right,862.5,img/object-9_120-levels_1D/object9F0Level61F1Level40.png,p,exemplar_display,28,52938,dense_right,p,4,TRUE,62,-44,44
sub_58,1,dense_right,586.3,img/object-9_120-levels_1D/object9F0Level45F1Level40.png,q,exemplar_display,30,55446,dense_right,p,4,FALSE,46,-16,16
sub_58,1,dense_right,653.8,img/object-9_120-levels_1D/object9F0Level71F1Level40.png,p,exemplar_display,32,57954,dense_right,p,4,TRUE,72,26,26
sub_58,1,dense_right,546.9,img/object-9_120-levels_1D/object9F0Level45F1Level40.png,q,exemplar_display,34,60461,dense_right,p,4,FALSE,46,-26,26
sub_58,1,dense_right,551,img/object-9_120-levels_1D/object9F0Level45F1Level40.png,q,exemplar_display,36,62969,dense_right,q,4,TRUE,46,0,0
sub_58,1,dense_right,531.8,img/object-9_120-levels_1D/object9F0Level109F1Level40.png,p,exemplar_display,38,65477,dense_right,p,4,TRUE,110,64,64
sub_58,1,dense_right,608.9,img/object-9_120-levels_1D/object9F0Level91F1Level40.png,q,exemplar_display,40,67985,dense_right,p,4,FALSE,92,-18,18
sub_58,1,dense_right,491.5,img/object-9_120-levels_1D/object9F0Level107F1Level40.png,q,exemplar_display,42,70492,dense_right,p,4,FALSE,108,16,16
sub_58,1,dense_right,512.4,img/object-9_120-levels_1D/object9F0Level107F1Level40.png,q,exemplar_display,44,73000,dense_right,q,4,TRUE,108,0,0
sub_58,1,dense_right,692.8,img/object-9_120-levels_1D/object9F0Level37F1Level40.png,p,exemplar_display,46,75508,dense_right,p,4,TRUE,38,-70,70
sub_58,1,dense_right,664.1,img/object-9_120-levels_1D/object9F0Level109F1Level40.png,p,exemplar_display,48,78019,dense_right,p,4,TRUE,110,72,72
sub_58,1,dense_right,517.8,img/object-9_120-levels_1D/object9F0Level95F1Level40.png,p,exemplar_display,50,80529,dense_right,p,4,TRUE,96,-14,14
sub_58,1,dense_right,627.7,img/object-9_120-levels_1D/object9F0Level45F1Level40.png,p,exemplar_display,52,83036,dense_right,p,4,TRUE,46,-50,50
sub_58,1,dense_right,617.2,img/object-9_120-levels_1D/object9F0Level45F1Level40.png,q,exemplar_display,54,85550,dense_right,q,4,TRUE,46,0,0
sub_58,1,dense_right,645.8,img/object-9_120-levels_1D/object9F0Level83F1Level40.png,p,exemplar_display,56,88059,dense_right,p,4,TRUE,84,38,38
sub_58,1,dense_right,450.7,img/object-9_120-levels_1D/object9F0Level83F1Level40.png,q,exemplar_display,58,90565,dense_right,q,4,TRUE,84,0,0
sub_58,1,dense_right,486.3,img/object-9_120-levels_1D/object9F0Level71F1Level40.png,q,exemplar_display,60,93073,dense_right,p,4,FALSE,72,-12,12
sub_58,1,dense_right,642.7,img/object-9_120-levels_1D/object9F0Level81F1Level40.png,p,exemplar_display,62,95581,dense_right,p,4,TRUE,82,10,10
sub_58,1,dense_right,702.4,img/object-9_120-levels_1D/object9F0Level53F1Level40.png,p,exemplar_display,64,98090,dense_right,p,4,TRUE,54,-28,28
sub_58,1,dense_right,1330.9,img/object-9_120-levels_1D/object9F0Level107F1Level40.png,p,exemplar_display,66,100596,dense_right,p,4,TRUE,108,54,54
sub_58,1,dense_right,898.1,img/object-9_120-levels_1D/object9F0Level61F1Level40.png,p,exemplar_display,68,103109,dense_right,p,4,TRUE,62,-46,46
sub_58,1,dense_right,405.6,img/object-9_120-levels_1D/object9F0Level61F1Level40.png,q,exemplar_display,70,105617,dense_right,q,4,TRUE,62,0,0
sub_58,1,dense_right,616.8,img/object-9_120-levels_1D/object9F0Level93F1Level40.png,p,exemplar_display,72,108125,dense_right,p,4,TRUE,94,32,32
sub_58,1,dense_right,654.4,img/object-9_120-levels_1D/object9F0Level37F1Level40.png,p,exemplar_display,74,110633,dense_right,p,4,TRUE,38,-56,56
sub_58,1,dense_right,746.5,img/object-9_120-levels_1D/object9F0Level77F1Level40.png,q,exemplar_display,76,113140,dense_right,p,4,FALSE,78,40,40
sub_58,1,dense_right,414.9,img/object-9_120-levels_1D/object9F0Level101F1Level40.png,q,exemplar_display,78,115648,dense_right,p,4,FALSE,102,24,24
sub_58,1,dense_right,754.1,img/object-9_120-levels_1D/object9F0Level101F1Level40.png,q,exemplar_display,80,118156,dense_right,q,4,TRUE,102,0,0
sub_58,1,dense_right,487,img/object-9_120-levels_1D/object9F0Level97F1Level40.png,q,exemplar_display,82,120663,dense_right,p,4,FALSE,98,-4,4
sub_58,1,dense_right,462.8,img/object-9_120-levels_1D/object9F0Level105F1Level40.png,q,exemplar_display,84,123177,dense_right,p,4,FALSE,106,8,8
sub_58,1,dense_right,458.4,img/object-9_120-levels_1D/object9F0Level93F1Level40.png,q,exemplar_display,86,125684,dense_right,p,4,FALSE,94,-12,12
sub_58,1,dense_right,477.9,img/object-9_120-levels_1D/object9F0Level107F1Level40.png,q,exemplar_display,88,128192,dense_right,p,4,FALSE,108,14,14
sub_58,1,dense_right,818.4,img/object-9_120-levels_1D/object9F0Level73F1Level40.png,p,exemplar_display,90,130700,dense_right,p,4,TRUE,74,-34,34
sub_58,1,dense_right,1063,img/object-9_120-levels_1D/object9F0Level81F1Level40.png,q,exemplar_display,92,133207,dense_right,p,4,FALSE,82,8,8
sub_58,1,dense_right,562.9,img/object-9_120-levels_1D/object9F0Level71F1Level40.png,q,exemplar_display,94,135715,dense_right,p,4,FALSE,72,-10,10
sub_58,1,dense_right,516.2,img/object-9_120-levels_1D/object9F0Level71F1Level40.png,q,exemplar_display,96,138229,dense_right,q,4,TRUE,72,0,0
sub_58,1,dense_right,693.5,img/object-9_120-levels_1D/object9F0Level105F1Level40.png,p,exemplar_display,98,140736,dense_right,p,4,TRUE,106,34,34
sub_58,1,dense_right,666,img/object-9_120-levels_1D/object9F0Level29F1Level40.png,p,exemplar_display,100,143247,dense_right,p,4,TRUE,30,-76,76
sub_58,1,dense_right,793.2,img/object-9_120-levels_1D/object9F0Level103F1Level40.png,q,exemplar_display,102,145757,dense_right,p,4,FALSE,104,74,74
sub_58,1,dense_right,547.9,img/object-9_120-levels_1D/object9F0Level103F1Level40.png,q,exemplar_display,104,148267,dense_right,q,4,TRUE,104,0,0
sub_58,1,dense_right,2007.1,img/object-9_120-levels_1D/object9F0Level79F1Level40.png,p,exemplar_display,2,11297,dense_right,p,5,,80,-24,24
sub_58,1,dense_right,1000.2,img/object-9_120-levels_1D/object9F0Level85F1Level40.png,p,exemplar_display,4,13803,dense_right,p,5,TRUE,86,6,6
sub_58,1,dense_right,689.2,img/object-9_120-levels_1D/object9F0Level109F1Level40.png,q,exemplar_display,6,16310,dense_right,p,5,FALSE,110,24,24
sub_58,1,dense_right,1151.3,img/object-9_120-levels_1D/object9F0Level87F1Level40.png,q,exemplar_display,8,18818,dense_right,p,5,FALSE,88,-22,22
sub_58,1,dense_right,664.4,img/object-9_120-levels_1D/object9F0Level87F1Level40.png,p,exemplar_display,10,21326,dense_right,q,5,FALSE,88,0,0
sub_58,1,dense_right,696.2,img/object-9_120-levels_1D/object9F0Level87F1Level40.png,q,exemplar_display,12,23833,dense_right,q,5,TRUE,88,0,0
sub_58,1,dense_right,778.6,img/object-9_120-levels_1D/object9F0Level71F1Level40.png,p,exemplar_display,14,26341,dense_right,p,5,TRUE,72,-16,16
sub_58,1,dense_right,1704.9,img/object-9_120-levels_1D/object9F0Level45F1Level40.png,q,exemplar_display,16,28854,dense_right,p,5,FALSE,46,-26,26
sub_58,1,dense_right,1261.2,img/object-9_120-levels_1D/object9F0Level99F1Level40.png,p,exemplar_display,18,31364,dense_right,p,5,TRUE,100,54,54
sub_58,1,dense_right,1120.2,img/object-9_120-levels_1D/object9F0Level105F1Level40.png,q,exemplar_display,20,33871,dense_right,p,5,FALSE,106,6,6
sub_58,1,dense_right,699.3,img/object-9_120-levels_1D/object9F0Level45F1Level40.png,p,exemplar_display,22,36379,dense_right,p,5,TRUE,46,-60,60
sub_58,1,dense_right,658.2,img/object-9_120-levels_1D/object9F0Level89F1Level40.png,p,exemplar_display,24,38887,dense_right,p,5,TRUE,90,44,44
sub_58,1,dense_right,940.4,img/object-9_120-levels_1D/object9F0Level97F1Level40.png,q,exemplar_display,26,41394,dense_right,p,5,FALSE,98,8,8
sub_58,1,dense_right,635.6,img/object-9_120-levels_1D/object9F0Level97F1Level40.png,q,exemplar_display,28,43902,dense_right,q,5,TRUE,98,0,0
sub_58,1,dense_right,477.6,img/object-9_120-levels_1D/object9F0Level93F1Level40.png,q,exemplar_display,30,46410,dense_right,p,5,FALSE,94,-4,4
sub_58,1,dense_right,536.6,img/object-9_120-levels_1D/object9F0Level37F1Level40.png,p,exemplar_display,32,48918,dense_right,p,5,TRUE,38,-56,56
sub_58,1,dense_right,800.4,img/object-9_120-levels_1D/object9F0Level83F1Level40.png,p,exemplar_display,34,51425,dense_right,p,5,TRUE,84,46,46
sub_58,1,dense_right,649.8,img/object-9_120-levels_1D/object9F0Level29F1Level40.png,p,exemplar_display,36,53933,dense_right,p,5,TRUE,30,-54,54
sub_58,1,dense_right,473.1,img/object-9_120-levels_1D/object9F0Level99F1Level40.png,p,exemplar_display,38,56440,dense_right,p,5,TRUE,100,70,70
sub_58,1,dense_right,433.6,img/object-9_120-levels_1D/object9F0Level109F1Level40.png,q,exemplar_display,40,58948,dense_right,p,5,FALSE,110,10,10
sub_58,1,dense_right,571.2,img/object-9_120-levels_1D/object9F0Level101F1Level40.png,q,exemplar_display,42,61461,dense_right,p,5,FALSE,102,-8,8
sub_58,1,dense_right,477,img/object-9_120-levels_1D/object9F0Level93F1Level40.png,q,exemplar_display,44,63969,dense_right,p,5,FALSE,94,-8,8
sub_58,1,dense_right,475.6,img/object-9_120-levels_1D/object9F0Level93F1Level40.png,q,exemplar_display,46,66476,dense_right,q,5,TRUE,94,0,0
sub_58,1,dense_right,752.1,img/object-9_120-levels_1D/object9F0Level79F1Level40.png,p,exemplar_display,48,68985,dense_right,p,5,TRUE,80,-14,14
sub_58,1,dense_right,580.6,img/object-9_120-levels_1D/object9F0Level79F1Level40.png,p,exemplar_display,50,71492,dense_right,q,5,FALSE,80,0,0
sub_58,1,dense_right,630,img/object-9_120-levels_1D/object9F0Level73F1Level40.png,q,exemplar_display,52,74000,dense_right,p,5,FALSE,74,-6,6
sub_58,1,dense_right,642,img/object-9_120-levels_1D/object9F0Level37F1Level40.png,p,exemplar_display,54,76507,dense_right,p,5,TRUE,38,-36,36
sub_58,1,dense_right,894,img/object-9_120-levels_1D/object9F0Level61F1Level40.png,q,exemplar_display,56,79015,dense_right,p,5,FALSE,62,24,24
sub_58,1,dense_right,696.5,img/object-9_120-levels_1D/object9F0Level61F1Level40.png,q,exemplar_display,58,81529,dense_right,q,5,TRUE,62,0,0
sub_58,1,dense_right,802,img/object-9_120-levels_1D/object9F0Level81F1Level40.png,p,exemplar_display,60,84036,dense_right,p,5,TRUE,82,20,20
sub_58,1,dense_right,600.2,img/object-9_120-levels_1D/object9F0Level77F1Level40.png,p,exemplar_display,62,86544,dense_right,p,5,TRUE,78,-4,4
sub_58,1,dense_right,697.6,img/object-9_120-levels_1D/object9F0Level91F1Level40.png,p,exemplar_display,64,89052,dense_right,p,5,TRUE,92,14,14
sub_58,1,dense_right,613,img/object-9_120-levels_1D/object9F0Level103F1Level40.png,q,exemplar_display,66,91559,dense_right,p,5,FALSE,104,12,12
sub_58,1,dense_right,597.4,img/object-9_120-levels_1D/object9F0Level99F1Level40.png,q,exemplar_display,68,94067,dense_right,p,5,FALSE,100,-4,4
sub_58,1,dense_right,606.4,img/object-9_120-levels_1D/object9F0Level103F1Level40.png,q,exemplar_display,70,96574,dense_right,p,5,FALSE,104,4,4
sub_58,1,dense_right,550.9,img/object-9_120-levels_1D/object9F0Level105F1Level40.png,q,exemplar_display,72,99088,dense_right,p,5,FALSE,106,2,2
sub_58,1,dense_right,529.4,img/object-9_120-levels_1D/object9F0Level91F1Level40.png,q,exemplar_display,74,101598,dense_right,p,5,FALSE,92,-14,14
sub_58,1,dense_right,592.5,img/object-9_120-levels_1D/object9F0Level91F1Level40.png,q,exemplar_display,76,104104,dense_right,q,5,TRUE,92,0,0
sub_58,1,dense_right,585.9,img/object-9_120-levels_1D/object9F0Level69F1Level40.png,p,exemplar_display,78,106611,dense_right,p,5,TRUE,70,-22,22
sub_58,1,dense_right,948.8,img/object-9_120-levels_1D/object9F0Level99F1Level40.png,q,exemplar_display,80,109123,dense_right,p,5,FALSE,100,30,30
sub_58,1,dense_right,464.4,img/object-9_120-levels_1D/object9F0Level99F1Level40.png,q,exemplar_display,82,111632,dense_right,q,5,TRUE,100,0,0
sub_58,1,dense_right,472.6,img/object-9_120-levels_1D/object9F0Level107F1Level40.png,q,exemplar_display,84,114140,dense_right,p,5,FALSE,108,8,8
sub_58,1,dense_right,845.4,img/object-9_120-levels_1D/object9F0Level87F1Level40.png,p,exemplar_display,86,116648,dense_right,p,5,TRUE,88,-20,20
sub_58,1,dense_right,778.3,img/object-9_120-levels_1D/object9F0Level87F1Level40.png,q,exemplar_display,88,119162,dense_right,q,5,TRUE,88,0,0
sub_58,1,dense_right,591.4,img/object-9_120-levels_1D/object9F0Level53F1Level40.png,p,exemplar_display,90,121669,dense_right,p,5,TRUE,54,-34,34
sub_58,1,dense_right,668.2,img/object-9_120-levels_1D/object9F0Level77F1Level40.png,q,exemplar_display,92,124177,dense_right,p,5,FALSE,78,24,24
sub_58,1,dense_right,595.5,img/object-9_120-levels_1D/object9F0Level81F1Level40.png,q,exemplar_display,94,126684,dense_right,p,5,FALSE,82,4,4
sub_58,1,dense_right,636,img/object-9_120-levels_1D/object9F0Level71F1Level40.png,q,exemplar_display,96,129192,dense_right,p,5,FALSE,72,-10,10
sub_58,1,dense_right,609.4,img/object-9_120-levels_1D/object9F0Level71F1Level40.png,q,exemplar_display,98,131700,dense_right,q,5,TRUE,72,0,0
sub_58,1,dense_right,661.5,img/object-9_120-levels_1D/object9F0Level87F1Level40.png,p,exemplar_display,100,134207,dense_right,p,5,TRUE,88,16,16
sub_58,1,dense_right,596.5,img/object-9_120-levels_1D/object9F0Level95F1Level40.png,p,exemplar_display,102,136715,dense_right,p,5,TRUE,96,8,8
sub_58,1,dense_right,700.8,img/object-9_120-levels_1D/object9F0Level89F1Level40.png,q,exemplar_display,104,139223,dense_right,p,5,FALSE,90,-6,6
sub_59,1,dense_right,,img/object-9_120-levels_1D/object9F0Level83F1Level40.png,,exemplar_display,2,13231,dense_right,,1,,84,,
sub_59,1,dense_right,649,img/object-9_120-levels_1D/object9F0Level103F1Level40.png,q,exemplar_display,4,15841,dense_right,p,1,FALSE,104,20,20
sub_59,1,dense_right,666,img/object-9_120-levels_1D/object9F0Level79F1Level40.png,q,exemplar_display,6,18465,dense_right,p,1,FALSE,80,-24,24
sub_59,1,dense_right,746,img/object-9_120-levels_1D/object9F0Level83F1Level40.png,q,exemplar_display,8,20995,dense_right,p,1,FALSE,84,4,4
sub_59,1,dense_right,547,img/object-9_120-levels_1D/object9F0Level101F1Level40.png,q,exemplar_display,10,23573,dense_right,p,1,FALSE,102,18,18
sub_59,1,dense_right,607,img/object-9_120-levels_1D/object9F0Level101F1Level40.png,q,exemplar_display,12,26104,dense_right,q,1,TRUE,102,0,0
sub_59,1,dense_right,537,img/object-9_120-levels_1D/object9F0Level91F1Level40.png,q,exemplar_display,14,28745,dense_right,p,1,FALSE,92,-10,10
sub_59,1,dense_right,729,img/object-9_120-levels_1D/object9F0Level109F1Level40.png,q,exemplar_display,16,31385,dense_right,p,1,FALSE,110,18,18
sub_59,1,dense_right,555,img/object-9_120-levels_1D/object9F0Level107F1Level40.png,q,exemplar_display,18,34026,dense_right,p,1,FALSE,108,-2,2
sub_59,1,dense_right,528,img/object-9_120-levels_1D/object9F0Level45F1Level40.png,p,exemplar_display,20,36650,dense_right,p,1,TRUE,46,-62,62
sub_59,1,dense_right,721,img/object-9_120-levels_1D/object9F0Level99F1Level40.png,q,exemplar_display,22,39277,dense_right,p,1,FALSE,100,54,54
sub_59,1,dense_right,903,img/object-9_120-levels_1D/object9F0Level29F1Level40.png,p,exemplar_display,24,41901,dense_right,p,1,TRUE,30,-70,70
sub_59,1,dense_right,669,img/object-9_120-levels_1D/object9F0Level87F1Level40.png,p,exemplar_display,26,44541,dense_right,p,1,TRUE,88,58,58
sub_59,1,dense_right,503,img/object-9_120-levels_1D/object9F0Level93F1Level40.png,q,exemplar_display,28,47182,dense_right,p,1,FALSE,94,6,6
sub_59,1,dense_right,553,img/object-9_120-levels_1D/object9F0Level93F1Level40.png,q,exemplar_display,30,49713,dense_right,q,1,TRUE,94,0,0
sub_59,1,dense_right,562,img/object-9_120-levels_1D/object9F0Level95F1Level40.png,q,exemplar_display,32,52354,dense_right,p,1,FALSE,96,2,2
sub_59,1,dense_right,1028,img/object-9_120-levels_1D/object9F0Level73F1Level40.png,p,exemplar_display,34,54994,dense_right,p,1,TRUE,74,-22,22
sub_59,1,dense_right,900,img/object-9_120-levels_1D/object9F0Level95F1Level40.png,p,exemplar_display,36,57526,dense_right,p,1,TRUE,96,22,22
sub_59,1,dense_right,668,img/object-9_120-levels_1D/object9F0Level29F1Level40.png,p,exemplar_display,38,60058,dense_right,p,1,TRUE,30,-66,66
sub_59,1,dense_right,763,img/object-9_120-levels_1D/object9F0Level81F1Level40.png,p,exemplar_display,40,62681,dense_right,p,1,TRUE,82,52,52
sub_59,1,dense_right,879,img/object-9_120-levels_1D/object9F0Level81F1Level40.png,p,exemplar_display,42,65213,dense_right,q,1,FALSE,82,0,0
sub_59,1,dense_right,549,img/object-9_120-levels_1D/object9F0Level29F1Level40.png,p,exemplar_display,44,67746,dense_right,p,1,TRUE,30,-52,52
sub_59,1,dense_right,488,img/object-9_120-levels_1D/object9F0Level73F1Level40.png,p,exemplar_display,46,70275,dense_right,p,1,TRUE,74,44,44
sub_59,1,dense_right,1363,img/object-9_120-levels_1D/object9F0Level85F1Level40.png,p,exemplar_display,48,72901,dense_right,p,1,TRUE,86,12,12
sub_59,1,dense_right,851,img/object-9_120-levels_1D/object9F0Level85F1Level40.png,q,exemplar_display,50,75432,dense_right,q,1,TRUE,86,0,0
sub_59,1,dense_right,744,img/object-9_120-levels_1D/object9F0Level53F1Level40.png,p,exemplar_display,52,78057,dense_right,p,1,TRUE,54,-32,32
sub_59,1,dense_right,822,img/object-9_120-levels_1D/object9F0Level107F1Level40.png,p,exemplar_display,54,80588,dense_right,p,1,TRUE,108,54,54
sub_59,1,dense_right,960,img/object-9_120-levels_1D/object9F0Level37F1Level40.png,p,exemplar_display,56,83221,dense_right,p,1,TRUE,38,-70,70
sub_59,1,dense_right,854,img/object-9_120-levels_1D/object9F0Level109F1Level40.png,p,exemplar_display,58,85751,dense_right,p,1,TRUE,110,72,72
sub_59,1,dense_right,625,img/object-9_120-levels_1D/object9F0Level109F1Level40.png,q,exemplar_display,60,88283,dense_right,q,1,TRUE,110,0,0
sub_59,1,dense_right,856,img/object-9_120-levels_1D/object9F0Level75F1Level40.png,p,exemplar_display,62,90908,dense_right,p,1,TRUE,76,-34,34
sub_59,1,dense_right,709,img/object-9_120-levels_1D/object9F0Level75F1Level40.png,q,exemplar_display,64,93438,dense_right,q,1,TRUE,76,0,0
sub_59,1,dense_right,602,img/object-9_120-levels_1D/object9F0Level101F1Level40.png,p,exemplar_display,66,95970,dense_right,p,1,TRUE,102,26,26
sub_59,1,dense_right,817,img/object-9_120-levels_1D/object9F0Level45F1Level40.png,p,exemplar_display,68,98502,dense_right,p,1,TRUE,46,-56,56
sub_59,1,dense_right,1375,img/object-9_120-levels_1D/object9F0Level77F1Level40.png,p,exemplar_display,70,101111,dense_right,p,1,TRUE,78,32,32
sub_59,1,dense_right,753,img/object-9_120-levels_1D/object9F0Level105F1Level40.png,q,exemplar_display,72,103706,dense_right,p,1,FALSE,106,28,28
sub_59,1,dense_right,702,img/object-9_120-levels_1D/object9F0Level69F1Level40.png,p,exemplar_display,74,106346,dense_right,p,1,TRUE,70,-36,36
sub_59,1,dense_right,1299,img/object-9_120-levels_1D/object9F0Level79F1Level40.png,q,exemplar_display,76,108877,dense_right,p,1,FALSE,80,10,10
sub_59,1,dense_right,598,img/object-9_120-levels_1D/object9F0Level103F1Level40.png,p,exemplar_display,78,111408,dense_right,p,1,TRUE,104,24,24
sub_59,1,dense_right,915,img/object-9_120-levels_1D/object9F0Level37F1Level40.png,p,exemplar_display,80,113940,dense_right,p,1,TRUE,38,-66,66
sub_59,1,dense_right,1202,img/object-9_120-levels_1D/object9F0Level37F1Level40.png,q,exemplar_display,82,116471,dense_right,q,1,TRUE,38,0,0
sub_59,1,dense_right,704,img/object-9_120-levels_1D/object9F0Level61F1Level40.png,q,exemplar_display,84,119096,dense_right,p,1,FALSE,62,24,24
sub_59,1,dense_right,697,img/object-9_120-levels_1D/object9F0Level61F1Level40.png,q,exemplar_display,86,121626,dense_right,q,1,TRUE,62,0,0
sub_59,1,dense_right,781,img/object-9_120-levels_1D/object9F0Level99F1Level40.png,p,exemplar_display,88,124158,dense_right,p,1,TRUE,100,38,38
sub_59,1,dense_right,1010,img/object-9_120-levels_1D/object9F0Level85F1Level40.png,q,exemplar_display,90,126690,dense_right,p,1,FALSE,86,-14,14
sub_59,1,dense_right,675,img/object-9_120-levels_1D/object9F0Level29F1Level40.png,p,exemplar_display,92,129221,dense_right,p,1,TRUE,30,-56,56
sub_59,1,dense_right,840,img/object-9_120-levels_1D/object9F0Level89F1Level40.png,q,exemplar_display,94,131846,dense_right,p,1,FALSE,90,60,60
sub_59,1,dense_right,910,img/object-9_120-levels_1D/object9F0Level95F1Level40.png,q,exemplar_display,96,134486,dense_right,p,1,FALSE,96,6,6
sub_59,1,dense_right,937,img/object-9_120-levels_1D/object9F0Level89F1Level40.png,q,exemplar_display,98,137018,dense_right,p,1,FALSE,90,-6,6
sub_59,1,dense_right,643,img/object-9_120-levels_1D/object9F0Level89F1Level40.png,q,exemplar_display,100,139549,dense_right,q,1,TRUE,90,0,0
sub_59,1,dense_right,578,img/object-9_120-levels_1D/object9F0Level85F1Level40.png,q,exemplar_display,102,142080,dense_right,p,1,FALSE,86,-4,4
sub_59,1,dense_right,480,img/object-9_120-levels_1D/object9F0Level97F1Level40.png,q,exemplar_display,104,144705,dense_right,p,1,FALSE,98,12,12
sub_59,1,dense_right,,img/object-9_120-levels_1D/object9F0Level97F1Level40.png,,exemplar_display,2,14011,dense_right,q,2,,98,0,0
sub_59,1,dense_right,960,img/object-9_120-levels_1D/object9F0Level75F1Level40.png,p,exemplar_display,4,16636,dense_right,p,2,TRUE,76,-22,22
sub_59,1,dense_right,1186,img/object-9_120-levels_1D/object9F0Level101F1Level40.png,p,exemplar_display,6,19261,dense_right,p,2,TRUE,102,26,26
sub_59,1,dense_right,1873,img/object-9_120-levels_1D/object9F0Level105F1Level40.png,q,exemplar_display,8,21870,dense_right,p,2,FALSE,106,4,4
sub_59,1,dense_right,575,img/object-9_120-levels_1D/object9F0Level107F1Level40.png,q,exemplar_display,10,24481,dense_right,p,2,FALSE,108,2,2
sub_59,1,dense_right,498,img/object-9_120-levels_1D/object9F0Level107F1Level40.png,q,exemplar_display,12,27011,dense_right,q,2,TRUE,108,0,0
sub_59,1,dense_right,461,img/object-9_120-levels_1D/object9F0Level105F1Level40.png,q,exemplar_display,14,29535,dense_right,p,2,FALSE,106,-2,2
sub_59,1,dense_right,574,img/object-9_120-levels_1D/object9F0Level77F1Level40.png,p,exemplar_display,16,32160,dense_right,p,2,TRUE,78,-28,28
sub_59,1,dense_right,956,img/object-9_120-levels_1D/object9F0Level73F1Level40.png,q,exemplar_display,18,34785,dense_right,p,2,FALSE,74,-4,4
sub_59,1,dense_right,573,img/object-9_120-levels_1D/object9F0Level71F1Level40.png,q,exemplar_display,20,37410,dense_right,p,2,FALSE,72,-2,2
sub_59,1,dense_right,783,img/object-9_120-levels_1D/object9F0Level89F1Level40.png,p,exemplar_display,22,40036,dense_right,p,2,TRUE,90,18,18
sub_59,1,dense_right,936,img/object-9_120-levels_1D/object9F0Level93F1Level40.png,q,exemplar_display,24,42662,dense_right,p,2,FALSE,94,4,4
sub_59,1,dense_right,756,img/object-9_120-levels_1D/object9F0Level91F1Level40.png,q,exemplar_display,26,45301,dense_right,p,2,FALSE,92,-2,2
sub_59,1,dense_right,449,img/object-9_120-levels_1D/object9F0Level99F1Level40.png,q,exemplar_display,28,47864,dense_right,p,2,FALSE,100,8,8
sub_59,1,dense_right,1212,img/object-9_120-levels_1D/object9F0Level37F1Level40.png,p,exemplar_display,30,50489,dense_right,p,2,TRUE,38,-62,62
sub_59,1,dense_right,844,img/object-9_120-levels_1D/object9F0Level109F1Level40.png,p,exemplar_display,32,53098,dense_right,p,2,TRUE,110,72,72
sub_59,1,dense_right,1859,img/object-9_120-levels_1D/object9F0Level97F1Level40.png,p,exemplar_display,34,55629,dense_right,p,2,TRUE,98,-12,12
sub_59,1,dense_right,1537,img/object-9_120-levels_1D/object9F0Level99F1Level40.png,q,exemplar_display,36,58160,dense_right,p,2,FALSE,100,2,2
sub_59,1,dense_right,586,img/object-9_120-levels_1D/object9F0Level99F1Level40.png,q,exemplar_display,38,60687,dense_right,q,2,TRUE,100,0,0
sub_59,1,dense_right,1029,img/object-9_120-levels_1D/object9F0Level105F1Level40.png,q,exemplar_display,40,63217,dense_right,p,2,FALSE,106,6,6
sub_59,1,dense_right,1301,img/object-9_120-levels_1D/object9F0Level89F1Level40.png,p,exemplar_display,42,65748,dense_right,p,2,TRUE,90,-16,16
sub_59,1,dense_right,834,img/object-9_120-levels_1D/object9F0Level73F1Level40.png,p,exemplar_display,44,68280,dense_right,p,2,TRUE,74,-16,16
sub_59,1,dense_right,686,img/object-9_120-levels_1D/object9F0Level71F1Level40.png,q,exemplar_display,46,70812,dense_right,p,2,FALSE,72,-2,2
sub_59,1,dense_right,1414,img/object-9_120-levels_1D/object9F0Level109F1Level40.png,p,exemplar_display,48,73343,dense_right,p,2,TRUE,110,38,38
sub_59,1,dense_right,1710,img/object-9_120-levels_1D/object9F0Level101F1Level40.png,p,exemplar_display,50,75874,dense_right,p,2,TRUE,102,-8,8
sub_59,1,dense_right,549,img/object-9_120-levels_1D/object9F0Level97F1Level40.png,q,exemplar_display,52,78406,dense_right,p,2,FALSE,98,-4,4
sub_59,1,dense_right,687,img/object-9_120-levels_1D/object9F0Level73F1Level40.png,p,exemplar_display,54,80936,dense_right,p,2,TRUE,74,-24,24
sub_59,1,dense_right,731,img/object-9_120-levels_1D/object9F0Level71F1Level40.png,q,exemplar_display,56,83467,dense_right,p,2,FALSE,72,-2,2
sub_59,1,dense_right,631,img/object-9_120-levels_1D/object9F0Level73F1Level40.png,q,exemplar_display,58,85999,dense_right,p,2,FALSE,74,2,2
sub_59,1,dense_right,697,img/object-9_120-levels_1D/object9F0Level73F1Level40.png,q,exemplar_display,60,88530,dense_right,q,2,TRUE,74,0,0
sub_59,1,dense_right,1014,img/object-9_120-levels_1D/object9F0Level81F1Level40.png,q,exemplar_display,62,91154,dense_right,p,2,FALSE,82,8,8
sub_59,1,dense_right,789,img/object-9_120-levels_1D/object9F0Level105F1Level40.png,p,exemplar_display,64,93686,dense_right,p,2,TRUE,106,24,24
sub_59,1,dense_right,1435,img/object-9_120-levels_1D/object9F0Level75F1Level40.png,p,exemplar_display,66,96218,dense_right,p,2,TRUE,76,-30,30
sub_59,1,dense_right,1412,img/object-9_120-levels_1D/object9F0Level101F1Level40.png,p,exemplar_display,68,98749,dense_right,p,2,TRUE,102,26,26
sub_59,1,dense_right,624,img/object-9_120-levels_1D/object9F0Level101F1Level40.png,q,exemplar_display,70,101280,dense_right,q,2,TRUE,102,0,0
sub_59,1,dense_right,783,img/object-9_120-levels_1D/object9F0Level99F1Level40.png,q,exemplar_display,72,103811,dense_right,p,2,FALSE,100,-2,2
sub_59,1,dense_right,489,img/object-9_120-levels_1D/object9F0Level99F1Level40.png,q,exemplar_display,74,106342,dense_right,q,2,TRUE,100,0,0
sub_59,1,dense_right,656,img/object-9_120-levels_1D/object9F0Level87F1Level40.png,q,exemplar_display,76,108966,dense_right,p,2,FALSE,88,-12,12
sub_59,1,dense_right,563,img/object-9_120-levels_1D/object9F0Level87F1Level40.png,q,exemplar_display,78,111498,dense_right,q,2,TRUE,88,0,0
sub_59,1,dense_right,660,img/object-9_120-levels_1D/object9F0Level95F1Level40.png,q,exemplar_display,80,114129,dense_right,p,2,FALSE,96,8,8
sub_59,1,dense_right,606,img/object-9_120-levels_1D/object9F0Level69F1Level40.png,p,exemplar_display,82,116754,dense_right,p,2,TRUE,70,-26,26
sub_59,1,dense_right,721,img/object-9_120-levels_1D/object9F0Level83F1Level40.png,p,exemplar_display,84,119381,dense_right,p,2,TRUE,84,14,14
sub_59,1,dense_right,948,img/object-9_120-levels_1D/object9F0Level83F1Level40.png,q,exemplar_display,86,121912,dense_right,q,2,TRUE,84,0,0
sub_59,1,dense_right,749,img/object-9_120-levels_1D/object9F0Level37F1Level40.png,p,exemplar_display,88,124443,dense_right,p,2,TRUE,38,-46,46
sub_59,1,dense_right,947,img/object-9_120-levels_1D/object9F0Level37F1Level40.png,q,exemplar_display,90,126975,dense_right,q,2,TRUE,38,0,0
sub_59,1,dense_right,861,img/object-9_120-levels_1D/object9F0Level79F1Level40.png,p,exemplar_display,92,129600,dense_right,p,2,TRUE,80,42,42
sub_59,1,dense_right,1385,img/object-9_120-levels_1D/object9F0Level105F1Level40.png,p,exemplar_display,94,132131,dense_right,p,2,TRUE,106,26,26
sub_59,1,dense_right,843,img/object-9_120-levels_1D/object9F0Level105F1Level40.png,q,exemplar_display,96,134663,dense_right,q,2,TRUE,106,0,0
sub_59,1,dense_right,732,img/object-9_120-levels_1D/object9F0Level71F1Level40.png,p,exemplar_display,98,137194,dense_right,p,2,TRUE,72,-34,34
sub_59,1,dense_right,1427,img/object-9_120-levels_1D/object9F0Level53F1Level40.png,p,exemplar_display,100,139787,dense_right,p,2,TRUE,54,-18,18
sub_59,1,dense_right,1203,img/object-9_120-levels_1D/object9F0Level93F1Level40.png,p,exemplar_display,102,142413,dense_right,p,2,TRUE,94,40,40
sub_59,1,dense_right,1307,img/object-9_120-levels_1D/object9F0Level79F1Level40.png,q,exemplar_display,104,144937,dense_right,p,2,FALSE,80,-14,14
sub_59,1,dense_right,,img/object-9_120-levels_1D/object9F0Level97F1Level40.png,,exemplar_display,2,12870,dense_right,p,3,,98,18,18
sub_59,1,dense_right,700,img/object-9_120-levels_1D/object9F0Level61F1Level40.png,p,exemplar_display,4,15495,dense_right,p,3,TRUE,62,-36,36
sub_59,1,dense_right,947,img/object-9_120-levels_1D/object9F0Level99F1Level40.png,p,exemplar_display,6,18120,dense_right,p,3,TRUE,100,38,38
sub_59,1,dense_right,1033,img/object-9_120-levels_1D/object9F0Level61F1Level40.png,p,exemplar_display,8,20651,dense_right,p,3,TRUE,62,-38,38
sub_59,1,dense_right,939,img/object-9_120-levels_1D/object9F0Level109F1Level40.png,p,exemplar_display,10,23276,dense_right,p,3,TRUE,110,48,48
sub_59,1,dense_right,1626,img/object-9_120-levels_1D/object9F0Level77F1Level40.png,p,exemplar_display,12,25854,dense_right,p,3,TRUE,78,-32,32
sub_59,1,dense_right,721,img/object-9_120-levels_1D/object9F0Level77F1Level40.png,q,exemplar_display,14,28385,dense_right,q,3,TRUE,78,0,0
sub_59,1,dense_right,998,img/object-9_120-levels_1D/object9F0Level37F1Level40.png,p,exemplar_display,16,31010,dense_right,p,3,TRUE,38,-40,40
sub_59,1,dense_right,872,img/object-9_120-levels_1D/object9F0Level105F1Level40.png,p,exemplar_display,18,33636,dense_right,p,3,TRUE,106,68,68
sub_59,1,dense_right,714,img/object-9_120-levels_1D/object9F0Level29F1Level40.png,p,exemplar_display,20,36260,dense_right,p,3,TRUE,30,-76,76
sub_59,1,dense_right,540,img/object-9_120-levels_1D/object9F0Level87F1Level40.png,p,exemplar_display,22,38869,dense_right,p,3,TRUE,88,58,58
sub_59,1,dense_right,376,img/object-9_120-levels_1D/object9F0Level85F1Level40.png,q,exemplar_display,24,41495,dense_right,p,3,FALSE,86,-2,2
sub_59,1,dense_right,738,img/object-9_120-levels_1D/object9F0Level103F1Level40.png,q,exemplar_display,26,44120,dense_right,p,3,FALSE,104,18,18
sub_59,1,dense_right,642,img/object-9_120-levels_1D/object9F0Level83F1Level40.png,q,exemplar_display,28,46746,dense_right,p,3,FALSE,84,-20,20
sub_59,1,dense_right,742,img/object-9_120-levels_1D/object9F0Level103F1Level40.png,q,exemplar_display,30,49276,dense_right,p,3,FALSE,104,20,20
sub_59,1,dense_right,653,img/object-9_120-levels_1D/object9F0Level45F1Level40.png,p,exemplar_display,32,51870,dense_right,p,3,TRUE,46,-58,58
sub_59,1,dense_right,1410,img/object-9_120-levels_1D/object9F0Level89F1Level40.png,p,exemplar_display,34,54495,dense_right,p,3,TRUE,90,44,44
sub_59,1,dense_right,709,img/object-9_120-levels_1D/object9F0Level89F1Level40.png,q,exemplar_display,36,57027,dense_right,q,3,TRUE,90,0,0
sub_59,1,dense_right,664,img/object-9_120-levels_1D/object9F0Level85F1Level40.png,q,exemplar_display,38,59558,dense_right,p,3,FALSE,86,-4,4
sub_59,1,dense_right,775,img/object-9_120-levels_1D/object9F0Level91F1Level40.png,q,exemplar_display,40,62181,dense_right,p,3,FALSE,92,6,6
sub_59,1,dense_right,864,img/object-9_120-levels_1D/object9F0Level61F1Level40.png,q,exemplar_display,42,64712,dense_right,p,3,FALSE,62,-30,30
sub_59,1,dense_right,833,img/object-9_120-levels_1D/object9F0Level81F1Level40.png,q,exemplar_display,44,67337,dense_right,p,3,FALSE,82,20,20
sub_59,1,dense_right,874,img/object-9_120-levels_1D/object9F0Level95F1Level40.png,p,exemplar_display,46,69931,dense_right,p,3,TRUE,96,14,14
sub_59,1,dense_right,1072,img/object-9_120-levels_1D/object9F0Level77F1Level40.png,p,exemplar_display,48,72455,dense_right,p,3,TRUE,78,-18,18
sub_59,1,dense_right,599,img/object-9_120-levels_1D/object9F0Level71F1Level40.png,q,exemplar_display,50,75079,dense_right,p,3,FALSE,72,-6,6
sub_59,1,dense_right,825,img/object-9_120-levels_1D/object9F0Level81F1Level40.png,q,exemplar_display,52,77608,dense_right,p,3,FALSE,82,10,10
sub_59,1,dense_right,642,img/object-9_120-levels_1D/object9F0Level37F1Level40.png,p,exemplar_display,54,80138,dense_right,p,3,TRUE,38,-44,44
sub_59,1,dense_right,636,img/object-9_120-levels_1D/object9F0Level87F1Level40.png,q,exemplar_display,56,82670,dense_right,p,3,FALSE,88,50,50
sub_59,1,dense_right,1227,img/object-9_120-levels_1D/object9F0Level53F1Level40.png,p,exemplar_display,58,85294,dense_right,p,3,TRUE,54,-34,34
sub_59,1,dense_right,719,img/object-9_120-levels_1D/object9F0Level85F1Level40.png,p,exemplar_display,60,87825,dense_right,p,3,TRUE,86,32,32
sub_59,1,dense_right,777,img/object-9_120-levels_1D/object9F0Level85F1Level40.png,q,exemplar_display,62,90356,dense_right,q,3,TRUE,86,0,0
sub_59,1,dense_right,645,img/object-9_120-levels_1D/object9F0Level53F1Level40.png,p,exemplar_display,64,92886,dense_right,p,3,TRUE,54,-32,32
sub_59,1,dense_right,729,img/object-9_120-levels_1D/object9F0Level109F1Level40.png,p,exemplar_display,66,95509,dense_right,p,3,TRUE,110,56,56
sub_59,1,dense_right,1168,img/object-9_120-levels_1D/object9F0Level91F1Level40.png,p,exemplar_display,68,98039,dense_right,p,3,TRUE,92,-18,18
sub_59,1,dense_right,589,img/object-9_120-levels_1D/object9F0Level75F1Level40.png,q,exemplar_display,70,100664,dense_right,p,3,FALSE,76,-16,16
sub_59,1,dense_right,696,img/object-9_120-levels_1D/object9F0Level29F1Level40.png,p,exemplar_display,72,103195,dense_right,p,3,TRUE,30,-46,46
sub_59,1,dense_right,1156,img/object-9_120-levels_1D/object9F0Level77F1Level40.png,p,exemplar_display,74,105725,dense_right,p,3,TRUE,78,48,48
sub_59,1,dense_right,560,img/object-9_120-levels_1D/object9F0Level77F1Level40.png,q,exemplar_display,76,108256,dense_right,q,3,TRUE,78,0,0
sub_59,1,dense_right,684,img/object-9_120-levels_1D/object9F0Level107F1Level40.png,p,exemplar_display,78,110883,dense_right,p,3,TRUE,108,30,30
sub_59,1,dense_right,805,img/object-9_120-levels_1D/object9F0Level71F1Level40.png,p,exemplar_display,80,113418,dense_right,p,3,TRUE,72,-36,36
sub_59,1,dense_right,703,img/object-9_120-levels_1D/object9F0Level79F1Level40.png,q,exemplar_display,82,115996,dense_right,p,3,FALSE,80,8,8
sub_59,1,dense_right,639,img/object-9_120-levels_1D/object9F0Level79F1Level40.png,q,exemplar_display,84,118527,dense_right,q,3,TRUE,80,0,0
sub_59,1,dense_right,726,img/object-9_120-levels_1D/object9F0Level81F1Level40.png,q,exemplar_display,86,121059,dense_right,p,3,FALSE,82,2,2
sub_59,1,dense_right,506,img/object-9_120-levels_1D/object9F0Level79F1Level40.png,q,exemplar_display,88,123590,dense_right,p,3,FALSE,80,-2,2
sub_59,1,dense_right,765,img/object-9_120-levels_1D/object9F0Level79F1Level40.png,q,exemplar_display,90,126121,dense_right,q,3,TRUE,80,0,0
sub_59,1,dense_right,703,img/object-9_120-levels_1D/object9F0Level109F1Level40.png,p,exemplar_display,92,128652,dense_right,p,3,TRUE,110,30,30
sub_59,1,dense_right,1288,img/object-9_120-levels_1D/object9F0Level109F1Level40.png,q,exemplar_display,94,131184,dense_right,q,3,TRUE,110,0,0
sub_59,1,dense_right,793,img/object-9_120-levels_1D/object9F0Level103F1Level40.png,q,exemplar_display,96,133714,dense_right,p,3,FALSE,104,-6,6
sub_59,1,dense_right,560,img/object-9_120-levels_1D/object9F0Level103F1Level40.png,q,exemplar_display,98,136247,dense_right,q,3,TRUE,104,0,0
sub_59,1,dense_right,575,img/object-9_120-levels_1D/object9F0Level107F1Level40.png,q,exemplar_display,100,138777,dense_right,p,3,FALSE,108,4,4
sub_59,1,dense_right,823,img/object-9_120-levels_1D/object9F0Level89F1Level40.png,q,exemplar_display,102,141309,dense_right,p,3,FALSE,90,-18,18
sub_59,1,dense_right,618,img/object-9_120-levels_1D/object9F0Level85F1Level40.png,q,exemplar_display,104,143840,dense_right,p,3,FALSE,86,-4,4
sub_59,1,dense_right,,img/object-9_120-levels_1D/object9F0Level93F1Level40.png,,exemplar_display,2,18309,dense_right,p,4,,94,8,8
sub_59,1,dense_right,1081,img/object-9_120-levels_1D/object9F0Level93F1Level40.png,q,exemplar_display,4,20840,dense_right,q,4,TRUE,94,0,0
sub_59,1,dense_right,896,img/object-9_120-levels_1D/object9F0Level29F1Level40.png,p,exemplar_display,6,23464,dense_right,p,4,TRUE,30,-64,64
sub_59,1,dense_right,898,img/object-9_120-levels_1D/object9F0Level29F1Level40.png,q,exemplar_display,8,25996,dense_right,q,4,TRUE,30,0,0
sub_59,1,dense_right,988,img/object-9_120-levels_1D/object9F0Level53F1Level40.png,q,exemplar_display,10,28621,dense_right,p,4,FALSE,54,24,24
sub_59,1,dense_right,531,img/object-9_120-levels_1D/object9F0Level53F1Level40.png,q,exemplar_display,12,31152,dense_right,q,4,TRUE,54,0,0
sub_59,1,dense_right,437,img/object-9_120-levels_1D/object9F0Level45F1Level40.png,q,exemplar_display,14,33746,dense_right,p,4,FALSE,46,-8,8
sub_59,1,dense_right,636,img/object-9_120-levels_1D/object9F0Level85F1Level40.png,p,exemplar_display,16,36371,dense_right,p,4,TRUE,86,40,40
sub_59,1,dense_right,676,img/object-9_120-levels_1D/object9F0Level87F1Level40.png,p,exemplar_display,18,38996,dense_right,p,4,TRUE,88,2,2
sub_59,1,dense_right,1970,img/object-9_120-levels_1D/object9F0Level61F1Level40.png,p,exemplar_display,20,41620,dense_right,p,4,TRUE,62,-26,26
sub_59,1,dense_right,1948,img/object-9_120-levels_1D/object9F0Level71F1Level40.png,q,exemplar_display,22,44246,dense_right,p,4,FALSE,72,10,10
sub_59,1,dense_right,1424,img/object-9_120-levels_1D/object9F0Level71F1Level40.png,q,exemplar_display,24,46778,dense_right,q,4,TRUE,72,0,0
sub_59,1,dense_right,765,img/object-9_120-levels_1D/object9F0Level109F1Level40.png,p,exemplar_display,26,49404,dense_right,p,4,TRUE,110,38,38
sub_59,1,dense_right,1083,img/object-9_120-levels_1D/object9F0Level83F1Level40.png,p,exemplar_display,28,52027,dense_right,p,4,TRUE,84,-26,26
sub_59,1,dense_right,903,img/object-9_120-levels_1D/object9F0Level99F1Level40.png,q,exemplar_display,30,54652,dense_right,p,4,FALSE,100,16,16
sub_59,1,dense_right,944,img/object-9_120-levels_1D/object9F0Level75F1Level40.png,p,exemplar_display,32,57277,dense_right,p,4,TRUE,76,-24,24
sub_59,1,dense_right,1144,img/object-9_120-levels_1D/object9F0Level45F1Level40.png,p,exemplar_display,34,59809,dense_right,p,4,TRUE,46,-30,30
sub_59,1,dense_right,965,img/object-9_120-levels_1D/object9F0Level103F1Level40.png,p,exemplar_display,36,62433,dense_right,p,4,TRUE,104,58,58
sub_59,1,dense_right,1673,img/object-9_120-levels_1D/object9F0Level91F1Level40.png,q,exemplar_display,38,65058,dense_right,p,4,FALSE,92,-12,12
sub_59,1,dense_right,602,img/object-9_120-levels_1D/object9F0Level91F1Level40.png,q,exemplar_display,40,67590,dense_right,q,4,TRUE,92,0,0
sub_59,1,dense_right,519,img/object-9_120-levels_1D/object9F0Level103F1Level40.png,q,exemplar_display,42,70120,dense_right,p,4,FALSE,104,12,12
sub_59,1,dense_right,444,img/object-9_120-levels_1D/object9F0Level103F1Level40.png,q,exemplar_display,44,72653,dense_right,q,4,TRUE,104,0,0
sub_59,1,dense_right,674,img/object-9_120-levels_1D/object9F0Level73F1Level40.png,p,exemplar_display,46,75277,dense_right,p,4,TRUE,74,-30,30
sub_59,1,dense_right,1136,img/object-9_120-levels_1D/object9F0Level91F1Level40.png,p,exemplar_display,48,77808,dense_right,p,4,TRUE,92,18,18
sub_59,1,dense_right,589,img/object-9_120-levels_1D/object9F0Level107F1Level40.png,q,exemplar_display,50,80434,dense_right,p,4,FALSE,108,16,16
sub_59,1,dense_right,1035,img/object-9_120-levels_1D/object9F0Level79F1Level40.png,p,exemplar_display,52,83059,dense_right,p,4,TRUE,80,-28,28
sub_59,1,dense_right,981,img/object-9_120-levels_1D/object9F0Level81F1Level40.png,q,exemplar_display,54,85683,dense_right,p,4,FALSE,82,2,2
sub_59,1,dense_right,697,img/object-9_120-levels_1D/object9F0Level81F1Level40.png,q,exemplar_display,56,88214,dense_right,q,4,TRUE,82,0,0
sub_59,1,dense_right,559,img/object-9_120-levels_1D/object9F0Level93F1Level40.png,q,exemplar_display,58,90746,dense_right,p,4,FALSE,94,12,12
sub_59,1,dense_right,1322,img/object-9_120-levels_1D/object9F0Level77F1Level40.png,q,exemplar_display,60,93371,dense_right,p,4,FALSE,78,-16,16
sub_59,1,dense_right,518,img/object-9_120-levels_1D/object9F0Level99F1Level40.png,q,exemplar_display,62,95902,dense_right,p,4,FALSE,100,22,22
sub_59,1,dense_right,655,img/object-9_120-levels_1D/object9F0Level107F1Level40.png,q,exemplar_display,64,98434,dense_right,p,4,FALSE,108,8,8
sub_59,1,dense_right,554,img/object-9_120-levels_1D/object9F0Level105F1Level40.png,q,exemplar_display,66,101058,dense_right,p,4,FALSE,106,-2,2
sub_59,1,dense_right,1201,img/object-9_120-levels_1D/object9F0Level69F1Level40.png,p,exemplar_display,68,103701,dense_right,p,4,TRUE,70,-36,36
sub_59,1,dense_right,1210,img/object-9_120-levels_1D/object9F0Level37F1Level40.png,q,exemplar_display,70,106324,dense_right,p,4,FALSE,38,-32,32
sub_59,1,dense_right,1324,img/object-9_120-levels_1D/object9F0Level75F1Level40.png,p,exemplar_display,72,108856,dense_right,p,4,TRUE,76,38,38
sub_59,1,dense_right,697,img/object-9_120-levels_1D/object9F0Level95F1Level40.png,q,exemplar_display,74,111480,dense_right,p,4,FALSE,96,20,20
sub_59,1,dense_right,591,img/object-9_120-levels_1D/object9F0Level95F1Level40.png,q,exemplar_display,76,114011,dense_right,q,4,TRUE,96,0,0
sub_59,1,dense_right,652,img/object-9_120-levels_1D/object9F0Level69F1Level40.png,p,exemplar_display,78,116543,dense_right,p,4,TRUE,70,-26,26
sub_59,1,dense_right,1124,img/object-9_120-levels_1D/object9F0Level69F1Level40.png,q,exemplar_display,80,119074,dense_right,q,4,TRUE,70,0,0
sub_59,1,dense_right,975,img/object-9_120-levels_1D/object9F0Level97F1Level40.png,p,exemplar_display,82,121699,dense_right,p,4,TRUE,98,28,28
sub_59,1,dense_right,1201,img/object-9_120-levels_1D/object9F0Level79F1Level40.png,q,exemplar_display,84,124230,dense_right,p,4,FALSE,80,-18,18
sub_59,1,dense_right,625,img/object-9_120-levels_1D/object9F0Level53F1Level40.png,p,exemplar_display,86,126855,dense_right,p,4,TRUE,54,-26,26
sub_59,1,dense_right,1230,img/object-9_120-levels_1D/object9F0Level91F1Level40.png,p,exemplar_display,88,129378,dense_right,p,4,TRUE,92,38,38
sub_59,1,dense_right,729,img/object-9_120-levels_1D/object9F0Level91F1Level40.png,q,exemplar_display,90,131909,dense_right,q,4,TRUE,92,0,0
sub_59,1,dense_right,643,img/object-9_120-levels_1D/object9F0Level69F1Level40.png,p,exemplar_display,92,134440,dense_right,p,4,TRUE,70,-22,22
sub_59,1,dense_right,596,img/object-9_120-levels_1D/object9F0Level101F1Level40.png,q,exemplar_display,94,137018,dense_right,p,4,FALSE,102,32,32
sub_59,1,dense_right,619,img/object-9_120-levels_1D/object9F0Level95F1Level40.png,q,exemplar_display,96,139550,dense_right,p,4,FALSE,96,-6,6
sub_59,1,dense_right,578,img/object-9_120-levels_1D/object9F0Level95F1Level40.png,q,exemplar_display,98,142083,dense_right,q,4,TRUE,96,0,0
sub_59,1,dense_right,546,img/object-9_120-levels_1D/object9F0Level93F1Level40.png,q,exemplar_display,100,144612,dense_right,p,4,FALSE,94,-2,2
sub_59,1,dense_right,908,img/object-9_120-levels_1D/object9F0Level83F1Level40.png,q,exemplar_display,102,147143,dense_right,p,4,FALSE,84,-10,10
sub_59,1,dense_right,571,img/object-9_120-levels_1D/object9F0Level83F1Level40.png,q,exemplar_display,104,149674,dense_right,q,4,TRUE,84,0,0
sub_59,1,dense_right,,img/object-9_120-levels_1D/object9F0Level69F1Level40.png,,exemplar_display,2,13537,dense_right,p,5,,70,-14,14
sub_59,1,dense_right,459,img/object-9_120-levels_1D/object9F0Level61F1Level40.png,q,exemplar_display,4,16100,dense_right,p,5,FALSE,62,-8,8
sub_59,1,dense_right,867,img/object-9_120-levels_1D/object9F0Level87F1Level40.png,p,exemplar_display,6,18662,dense_right,p,5,TRUE,88,26,26
sub_59,1,dense_right,642,img/object-9_120-levels_1D/object9F0Level87F1Level40.png,q,exemplar_display,8,21193,dense_right,q,5,TRUE,88,0,0
sub_59,1,dense_right,764,img/object-9_120-levels_1D/object9F0Level53F1Level40.png,p,exemplar_display,10,23773,dense_right,p,5,TRUE,54,-34,34
sub_59,1,dense_right,678,img/object-9_120-levels_1D/object9F0Level45F1Level40.png,p,exemplar_display,12,26351,dense_right,p,5,TRUE,46,-8,8
sub_59,1,dense_right,1317,img/object-9_120-levels_1D/object9F0Level69F1Level40.png,q,exemplar_display,14,28881,dense_right,p,5,FALSE,70,24,24
sub_59,1,dense_right,629,img/object-9_120-levels_1D/object9F0Level69F1Level40.png,q,exemplar_display,16,31412,dense_right,q,5,TRUE,70,0,0
sub_59,1,dense_right,1276,img/object-9_120-levels_1D/object9F0Level45F1Level40.png,q,exemplar_display,18,33944,dense_right,p,5,FALSE,46,-24,24
sub_59,1,dense_right,725,img/object-9_120-levels_1D/object9F0Level45F1Level40.png,q,exemplar_display,20,36475,dense_right,q,5,TRUE,46,0,0
sub_59,1,dense_right,1442,img/object-9_120-levels_1D/object9F0Level89F1Level40.png,p,exemplar_display,22,39100,dense_right,p,5,TRUE,90,44,44
sub_59,1,dense_right,752,img/object-9_120-levels_1D/object9F0Level81F1Level40.png,q,exemplar_display,24,41725,dense_right,p,5,FALSE,82,-8,8
sub_59,1,dense_right,1038,img/object-9_120-levels_1D/object9F0Level45F1Level40.png,p,exemplar_display,26,44257,dense_right,p,5,TRUE,46,-36,36
sub_59,1,dense_right,529,img/object-9_120-levels_1D/object9F0Level45F1Level40.png,q,exemplar_display,28,46789,dense_right,q,5,TRUE,46,0,0
sub_59,1,dense_right,850,img/object-9_120-levels_1D/object9F0Level95F1Level40.png,p,exemplar_display,30,49413,dense_right,p,5,TRUE,96,50,50
sub_59,1,dense_right,621,img/object-9_120-levels_1D/object9F0Level93F1Level40.png,q,exemplar_display,32,52038,dense_right,p,5,FALSE,94,-2,2
sub_59,1,dense_right,480,img/object-9_120-levels_1D/object9F0Level107F1Level40.png,q,exemplar_display,34,54632,dense_right,p,5,FALSE,108,14,14
sub_59,1,dense_right,500,img/object-9_120-levels_1D/object9F0Level107F1Level40.png,q,exemplar_display,36,57162,dense_right,q,5,TRUE,108,0,0
sub_59,1,dense_right,848,img/object-9_120-levels_1D/object9F0Level69F1Level40.png,p,exemplar_display,38,59695,dense_right,p,5,TRUE,70,-38,38
sub_59,1,dense_right,973,img/object-9_120-levels_1D/object9F0Level61F1Level40.png,q,exemplar_display,40,62226,dense_right,p,5,FALSE,62,-8,8
sub_59,1,dense_right,888,img/object-9_120-levels_1D/object9F0Level77F1Level40.png,q,exemplar_display,42,64803,dense_right,p,5,FALSE,78,16,16
sub_59,1,dense_right,827,img/object-9_120-levels_1D/object9F0Level105F1Level40.png,p,exemplar_display,44,67428,dense_right,p,5,TRUE,106,28,28
sub_59,1,dense_right,955,img/object-9_120-levels_1D/object9F0Level53F1Level40.png,p,exemplar_display,46,69960,dense_right,p,5,TRUE,54,-52,52
sub_59,1,dense_right,1919,img/object-9_120-levels_1D/object9F0Level87F1Level40.png,p,exemplar_display,48,72492,dense_right,p,5,TRUE,88,34,34
sub_59,1,dense_right,1176,img/object-9_120-levels_1D/object9F0Level71F1Level40.png,p,exemplar_display,50,75116,dense_right,p,5,TRUE,72,-16,16
sub_59,1,dense_right,628,img/object-9_120-levels_1D/object9F0Level71F1Level40.png,q,exemplar_display,52,77647,dense_right,q,5,TRUE,72,0,0
sub_59,1,dense_right,723,img/object-9_120-levels_1D/object9F0Level53F1Level40.png,p,exemplar_display,54,80179,dense_right,p,5,TRUE,54,-18,18
sub_59,1,dense_right,1209,img/object-9_120-levels_1D/object9F0Level77F1Level40.png,p,exemplar_display,56,82710,dense_right,p,5,TRUE,78,24,24
sub_59,1,dense_right,740,img/object-9_120-levels_1D/object9F0Level81F1Level40.png,q,exemplar_display,58,85241,dense_right,p,5,FALSE,82,4,4
sub_59,1,dense_right,717,img/object-9_120-levels_1D/object9F0Level87F1Level40.png,q,exemplar_display,60,87772,dense_right,p,5,FALSE,88,6,6
sub_59,1,dense_right,822,img/object-9_120-levels_1D/object9F0Level91F1Level40.png,q,exemplar_display,62,90397,dense_right,p,5,FALSE,92,4,4
sub_59,1,dense_right,698,img/object-9_120-levels_1D/object9F0Level37F1Level40.png,p,exemplar_display,64,93023,dense_right,p,5,TRUE,38,-54,54
sub_59,1,dense_right,790,img/object-9_120-levels_1D/object9F0Level97F1Level40.png,p,exemplar_display,66,95646,dense_right,p,5,TRUE,98,60,60
sub_59,1,dense_right,1277,img/object-9_120-levels_1D/object9F0Level83F1Level40.png,p,exemplar_display,68,98273,dense_right,p,5,TRUE,84,-14,14
sub_59,1,dense_right,1400,img/object-9_120-levels_1D/object9F0Level97F1Level40.png,q,exemplar_display,70,100803,dense_right,p,5,FALSE,98,14,14
sub_59,1,dense_right,665,img/object-9_120-levels_1D/object9F0Level97F1Level40.png,q,exemplar_display,72,103334,dense_right,q,5,TRUE,98,0,0
sub_59,1,dense_right,545,img/object-9_120-levels_1D/object9F0Level101F1Level40.png,q,exemplar_display,74,105959,dense_right,p,5,FALSE,102,4,4
sub_59,1,dense_right,684,img/object-9_120-levels_1D/object9F0Level29F1Level40.png,p,exemplar_display,76,108585,dense_right,p,5,TRUE,30,-72,72
sub_59,1,dense_right,1578,img/object-9_120-levels_1D/object9F0Level61F1Level40.png,q,exemplar_display,78,111115,dense_right,p,5,FALSE,62,32,32
sub_59,1,dense_right,559,img/object-9_120-levels_1D/object9F0Level61F1Level40.png,q,exemplar_display,80,113647,dense_right,q,5,TRUE,62,0,0
sub_59,1,dense_right,1085,img/object-9_120-levels_1D/object9F0Level73F1Level40.png,p,exemplar_display,82,116272,dense_right,p,5,TRUE,74,12,12
sub_59,1,dense_right,613,img/object-9_120-levels_1D/object9F0Level73F1Level40.png,q,exemplar_display,84,118805,dense_right,q,5,TRUE,74,0,0
sub_59,1,dense_right,610,img/object-9_120-levels_1D/object9F0Level103F1Level40.png,p,exemplar_display,86,121429,dense_right,p,5,TRUE,104,30,30
sub_59,1,dense_right,576,img/object-9_120-levels_1D/object9F0Level97F1Level40.png,q,exemplar_display,88,123960,dense_right,p,5,FALSE,98,-6,6
sub_59,1,dense_right,711,img/object-9_120-levels_1D/object9F0Level89F1Level40.png,q,exemplar_display,90,126569,dense_right,p,5,FALSE,90,-8,8
sub_59,1,dense_right,543,img/object-9_120-levels_1D/object9F0Level83F1Level40.png,q,exemplar_display,92,129100,dense_right,p,5,FALSE,84,-6,6
sub_59,1,dense_right,502,img/object-9_120-levels_1D/object9F0Level29F1Level40.png,p,exemplar_display,94,131632,dense_right,p,5,TRUE,30,-54,54
sub_59,1,dense_right,766,img/object-9_120-levels_1D/object9F0Level75F1Level40.png,q,exemplar_display,96,134256,dense_right,p,5,FALSE,76,46,46
sub_59,1,dense_right,867,img/object-9_120-levels_1D/object9F0Level93F1Level40.png,q,exemplar_display,98,136881,dense_right,p,5,FALSE,94,18,18
sub_59,1,dense_right,686,img/object-9_120-levels_1D/object9F0Level75F1Level40.png,q,exemplar_display,100,139412,dense_right,p,5,FALSE,76,-18,18
sub_59,1,dense_right,592,img/object-9_120-levels_1D/object9F0Level75F1Level40.png,q,exemplar_display,102,141944,dense_right,q,5,TRUE,76,0,0
sub_59,1,dense_right,1740,img/object-9_120-levels_1D/object9F0Level101F1Level40.png,p,exemplar_display,104,144475,dense_right,p,5,TRUE,102,26,26
sub_60,1,dense_left,,img/object-9_120-levels_1D/object9F0Level39F1Level40.png,,exemplar_display,2,28930,dense_left,,1,,40,,
sub_60,1,dense_left,599.6,img/object-9_120-levels_1D/object9F0Level101F1Level40.png,p,exemplar_display,4,31448,dense_left,p,1,TRUE,102,62,62
sub_60,1,dense_left,1351.9,img/object-9_120-levels_1D/object9F0Level33F1Level40.png,p,exemplar_display,6,33968,dense_left,p,1,TRUE,34,-68,68
sub_60,1,dense_left,697.7,img/object-9_120-levels_1D/object9F0Level37F1Level40.png,q,exemplar_display,8,36476,dense_left,p,1,FALSE,38,4,4
sub_60,1,dense_left,601.9,img/object-9_120-levels_1D/object9F0Level45F1Level40.png,q,exemplar_display,10,38986,dense_left,p,1,FALSE,46,8,8
sub_60,1,dense_left,572.8,img/object-9_120-levels_1D/object9F0Level109F1Level40.png,p,exemplar_display,12,41514,dense_left,p,1,TRUE,110,64,64
sub_60,1,dense_left,658,img/object-9_120-levels_1D/object9F0Level77F1Level40.png,p,exemplar_display,14,44031,dense_left,p,1,TRUE,78,-32,32
sub_60,1,dense_left,699.1,img/object-9_120-levels_1D/object9F0Level77F1Level40.png,q,exemplar_display,16,46555,dense_left,q,1,TRUE,78,0,0
sub_60,1,dense_left,974.1,img/object-9_120-levels_1D/object9F0Level77F1Level40.png,q,exemplar_display,18,49070,dense_left,q,1,TRUE,78,0,0
sub_60,1,dense_left,1034.7,img/object-9_120-levels_1D/object9F0Level31F1Level40.png,p,exemplar_display,20,51594,dense_left,p,1,TRUE,32,-46,46
sub_60,1,dense_left,1268.3,img/object-9_120-levels_1D/object9F0Level43F1Level40.png,q,exemplar_display,22,54109,dense_left,p,1,FALSE,44,12,12
sub_60,1,dense_left,755.1,img/object-9_120-levels_1D/object9F0Level69F1Level40.png,p,exemplar_display,24,56631,dense_left,p,1,TRUE,70,26,26
sub_60,1,dense_left,1129.3,img/object-9_120-levels_1D/object9F0Level67F1Level40.png,q,exemplar_display,26,59150,dense_left,p,1,FALSE,68,-2,2
sub_60,1,dense_left,643.5,img/object-9_120-levels_1D/object9F0Level29F1Level40.png,p,exemplar_display,28,61673,dense_left,p,1,TRUE,30,-38,38
sub_60,1,dense_left,808,img/object-9_120-levels_1D/object9F0Level67F1Level40.png,p,exemplar_display,30,64187,dense_left,p,1,TRUE,68,38,38
sub_60,1,dense_left,674.6,img/object-9_120-levels_1D/object9F0Level55F1Level40.png,q,exemplar_display,32,66707,dense_left,p,1,FALSE,56,-12,12
sub_60,1,dense_left,807.3,img/object-9_120-levels_1D/object9F0Level55F1Level40.png,q,exemplar_display,34,69223,dense_left,q,1,TRUE,56,0,0
sub_60,1,dense_left,1630.6,img/object-9_120-levels_1D/object9F0Level53F1Level40.png,p,exemplar_display,36,71736,dense_left,p,1,TRUE,54,-2,2
sub_60,1,dense_left,1031.5,img/object-9_120-levels_1D/object9F0Level55F1Level40.png,q,exemplar_display,38,74257,dense_left,p,1,FALSE,56,2,2
sub_60,1,dense_left,1371.6,img/object-9_120-levels_1D/object9F0Level55F1Level40.png,q,exemplar_display,40,76770,dense_left,q,1,TRUE,56,0,0
sub_60,1,dense_left,726.1,img/object-9_120-levels_1D/object9F0Level53F1Level40.png,q,exemplar_display,42,79298,dense_left,p,1,FALSE,54,-2,2
sub_60,1,dense_left,664.4,img/object-9_120-levels_1D/object9F0Level67F1Level40.png,p,exemplar_display,44,81809,dense_left,p,1,TRUE,68,14,14
sub_60,1,dense_left,1234.2,img/object-9_120-levels_1D/object9F0Level65F1Level40.png,p,exemplar_display,46,84317,dense_left,p,1,TRUE,66,-2,2
sub_60,1,dense_left,1015,img/object-9_120-levels_1D/object9F0Level101F1Level40.png,p,exemplar_display,48,86830,dense_left,p,1,TRUE,102,36,36
sub_60,1,dense_left,1075,img/object-9_120-levels_1D/object9F0Level57F1Level40.png,p,exemplar_display,50,89354,dense_left,p,1,TRUE,58,-44,44
sub_60,1,dense_left,1075.9,img/object-9_120-levels_1D/object9F0Level33F1Level40.png,p,exemplar_display,52,91873,dense_left,p,1,TRUE,34,-24,24
sub_60,1,dense_left,656.1,img/object-9_120-levels_1D/object9F0Level43F1Level40.png,q,exemplar_display,54,94384,dense_left,p,1,FALSE,44,10,10
sub_60,1,dense_left,799.5,img/object-9_120-levels_1D/object9F0Level67F1Level40.png,p,exemplar_display,56,96903,dense_left,p,1,TRUE,68,24,24
sub_60,1,dense_left,1174.1,img/object-9_120-levels_1D/object9F0Level51F1Level40.png,p,exemplar_display,58,99419,dense_left,p,1,TRUE,52,-16,16
sub_60,1,dense_left,787.1999999,img/object-9_120-levels_1D/object9F0Level101F1Level40.png,p,exemplar_display,60,101929,dense_left,p,1,TRUE,102,50,50
sub_60,1,dense_left,964,img/object-9_120-levels_1D/object9F0Level65F1Level40.png,p,exemplar_display,62,104439,dense_left,p,1,TRUE,66,-36,36
sub_60,1,dense_left,729.4,img/object-9_120-levels_1D/object9F0Level61F1Level40.png,q,exemplar_display,64,106962,dense_left,p,1,FALSE,62,-4,4
sub_60,1,dense_left,1039.3,img/object-9_120-levels_1D/object9F0Level61F1Level40.png,q,exemplar_display,66,109472,dense_left,q,1,TRUE,62,0,0
sub_60,1,dense_left,672.2,img/object-9_120-levels_1D/object9F0Level41F1Level40.png,p,exemplar_display,68,111991,dense_left,p,1,TRUE,42,-20,20
sub_60,1,dense_left,928.3000001,img/object-9_120-levels_1D/object9F0Level41F1Level40.png,q,exemplar_display,70,114502,dense_left,q,1,TRUE,42,0,0
sub_60,1,dense_left,1117.7,img/object-9_120-levels_1D/object9F0Level51F1Level40.png,p,exemplar_display,72,117029,dense_left,p,1,TRUE,52,10,10
sub_60,1,dense_left,600.4000001,img/object-9_120-levels_1D/object9F0Level45F1Level40.png,q,exemplar_display,74,119546,dense_left,p,1,FALSE,46,-6,6
sub_60,1,dense_left,1801.5,img/object-9_120-levels_1D/object9F0Level45F1Level40.png,q,exemplar_display,76,122055,dense_left,q,1,TRUE,46,0,0
sub_60,1,dense_left,616,img/object-9_120-levels_1D/object9F0Level67F1Level40.png,p,exemplar_display,78,124565,dense_left,p,1,TRUE,68,22,22
sub_60,1,dense_left,1550.7,img/object-9_120-levels_1D/object9F0Level59F1Level40.png,p,exemplar_display,80,127087,dense_left,p,1,TRUE,60,-8,8
sub_60,1,dense_left,973.1999999,img/object-9_120-levels_1D/object9F0Level93F1Level40.png,p,exemplar_display,82,129606,dense_left,p,1,TRUE,94,34,34
sub_60,1,dense_left,988.3,img/object-9_120-levels_1D/object9F0Level77F1Level40.png,p,exemplar_display,84,132113,dense_left,p,1,TRUE,78,-16,16
sub_60,1,dense_left,1046.4,img/object-9_120-levels_1D/object9F0Level43F1Level40.png,p,exemplar_display,86,134621,dense_left,p,1,TRUE,44,-34,34
sub_60,1,dense_left,625.1,img/object-9_120-levels_1D/object9F0Level49F1Level40.png,q,exemplar_display,88,137137,dense_left,p,1,FALSE,50,6,6
sub_60,1,dense_left,689.6,img/object-9_120-levels_1D/object9F0Level29F1Level40.png,p,exemplar_display,90,139651,dense_left,p,1,TRUE,30,-20,20
sub_60,1,dense_left,956,img/object-9_120-levels_1D/object9F0Level47F1Level40.png,p,exemplar_display,92,142173,dense_left,p,1,TRUE,48,18,18
sub_60,1,dense_left,1171.7,img/object-9_120-levels_1D/object9F0Level57F1Level40.png,q,exemplar_display,94,144680,dense_left,p,1,FALSE,58,10,10
sub_60,1,dense_left,925.5,img/object-9_120-levels_1D/object9F0Level59F1Level40.png,q,exemplar_display,96,147188,dense_left,p,1,FALSE,60,2,2
sub_60,1,dense_left,1331.2,img/object-9_120-levels_1D/object9F0Level57F1Level40.png,q,exemplar_display,98,149714,dense_left,p,1,FALSE,58,-2,2
sub_60,1,dense_left,611.1,img/object-9_120-levels_1D/object9F0Level37F1Level40.png,p,exemplar_display,100,152226,dense_left,p,1,TRUE,38,-20,20
sub_60,1,dense_left,780.5,img/object-9_120-levels_1D/object9F0Level37F1Level40.png,q,exemplar_display,102,154738,dense_left,q,1,TRUE,38,0,0
sub_60,1,dense_left,695.4,img/object-9_120-levels_1D/object9F0Level57F1Level40.png,p,exemplar_display,104,157246,dense_left,p,1,TRUE,58,20,20
sub_60,1,dense_left,,img/object-9_120-levels_1D/object9F0Level53F1Level40.png,,exemplar_display,2,34198,dense_left,p,2,,54,-4,4
sub_60,1,dense_left,927.6,img/object-9_120-levels_1D/object9F0Level61F1Level40.png,q,exemplar_display,4,36708,dense_left,p,2,FALSE,62,8,8
sub_60,1,dense_left,821.4,img/object-9_120-levels_1D/object9F0Level61F1Level40.png,q,exemplar_display,6,39226,dense_left,q,2,TRUE,62,0,0
sub_60,1,dense_left,2345.1,img/object-9_120-levels_1D/object9F0Level65F1Level40.png,p,exemplar_display,8,42080,dense_left,p,2,TRUE,66,4,4
sub_60,1,dense_left,846,img/object-9_120-levels_1D/object9F0Level49F1Level40.png,p,exemplar_display,10,44601,dense_left,p,2,TRUE,50,-16,16
sub_60,1,dense_left,553.9,img/object-9_120-levels_1D/object9F0Level49F1Level40.png,q,exemplar_display,12,47108,dense_left,q,2,TRUE,50,0,0
sub_60,1,dense_left,1269.2,img/object-9_120-levels_1D/object9F0Level41F1Level40.png,p,exemplar_display,14,49624,dense_left,p,2,TRUE,42,-8,8
sub_60,1,dense_left,782.6,img/object-9_120-levels_1D/object9F0Level69F1Level40.png,p,exemplar_display,16,52143,dense_left,p,2,TRUE,70,28,28
sub_60,1,dense_left,1262.3,img/object-9_120-levels_1D/object9F0Level39F1Level40.png,p,exemplar_display,18,54656,dense_left,p,2,TRUE,40,-30,30
sub_60,1,dense_left,577.5,img/object-9_120-levels_1D/object9F0Level37F1Level40.png,q,exemplar_display,20,57167,dense_left,p,2,FALSE,38,-2,2
sub_60,1,dense_left,704.5,img/object-9_120-levels_1D/object9F0Level59F1Level40.png,p,exemplar_display,22,59673,dense_left,p,2,TRUE,60,22,22
sub_60,1,dense_left,598.6,img/object-9_120-levels_1D/object9F0Level85F1Level40.png,p,exemplar_display,24,62193,dense_left,p,2,TRUE,86,26,26
sub_60,1,dense_left,1295.4,img/object-9_120-levels_1D/object9F0Level41F1Level40.png,p,exemplar_display,26,64710,dense_left,p,2,TRUE,42,-44,44
sub_60,1,dense_left,1062.9,img/object-9_120-levels_1D/object9F0Level69F1Level40.png,p,exemplar_display,28,67222,dense_left,p,2,TRUE,70,28,28
sub_60,1,dense_left,1176.4,img/object-9_120-levels_1D/object9F0Level55F1Level40.png,p,exemplar_display,30,69731,dense_left,p,2,TRUE,56,-14,14
sub_60,1,dense_left,746.8,img/object-9_120-levels_1D/object9F0Level31F1Level40.png,p,exemplar_display,32,72251,dense_left,p,2,TRUE,32,-24,24
sub_60,1,dense_left,973.8,img/object-9_120-levels_1D/object9F0Level85F1Level40.png,p,exemplar_display,34,74768,dense_left,p,2,TRUE,86,54,54
sub_60,1,dense_left,635.6,img/object-9_120-levels_1D/object9F0Level33F1Level40.png,p,exemplar_display,36,77290,dense_left,p,2,TRUE,34,-52,52
sub_60,1,dense_left,853.6999999,img/object-9_120-levels_1D/object9F0Level63F1Level40.png,p,exemplar_display,38,79802,dense_left,p,2,TRUE,64,30,30
sub_60,1,dense_left,938.1,img/object-9_120-levels_1D/object9F0Level51F1Level40.png,q,exemplar_display,40,82314,dense_left,p,2,FALSE,52,-12,12
sub_60,1,dense_left,815,img/object-9_120-levels_1D/object9F0Level53F1Level40.png,q,exemplar_display,42,84830,dense_left,p,2,FALSE,54,2,2
sub_60,1,dense_left,731.3,img/object-9_120-levels_1D/object9F0Level67F1Level40.png,p,exemplar_display,44,87341,dense_left,p,2,TRUE,68,14,14
sub_60,1,dense_left,1448.8,img/object-9_120-levels_1D/object9F0Level77F1Level40.png,q,exemplar_display,46,89853,dense_left,p,2,FALSE,78,10,10
sub_60,1,dense_left,685.7,img/object-9_120-levels_1D/object9F0Level39F1Level40.png,p,exemplar_display,48,92373,dense_left,p,2,TRUE,40,-38,38
sub_60,1,dense_left,630.6999999,img/object-9_120-levels_1D/object9F0Level39F1Level40.png,q,exemplar_display,50,94891,dense_left,q,2,TRUE,40,0,0
sub_60,1,dense_left,746,img/object-9_120-levels_1D/object9F0Level29F1Level40.png,p,exemplar_display,52,97413,dense_left,p,2,TRUE,30,-10,10
sub_60,1,dense_left,645,img/object-9_120-levels_1D/object9F0Level77F1Level40.png,p,exemplar_display,54,99926,dense_left,p,2,TRUE,78,48,48
sub_60,1,dense_left,1765.9,img/object-9_120-levels_1D/object9F0Level59F1Level40.png,q,exemplar_display,56,102442,dense_left,p,2,FALSE,60,-18,18
sub_60,1,dense_left,839.8,img/object-9_120-levels_1D/object9F0Level59F1Level40.png,q,exemplar_display,58,104962,dense_left,q,2,TRUE,60,0,0
sub_60,1,dense_left,972.1,img/object-9_120-levels_1D/object9F0Level77F1Level40.png,p,exemplar_display,60,107485,dense_left,p,2,TRUE,78,18,18
sub_60,1,dense_left,1210.1,img/object-9_120-levels_1D/object9F0Level61F1Level40.png,p,exemplar_display,62,110000,dense_left,p,2,TRUE,62,-16,16
sub_60,1,dense_left,1494,img/object-9_120-levels_1D/object9F0Level45F1Level40.png,p,exemplar_display,64,112516,dense_left,p,2,TRUE,46,-16,16
sub_60,1,dense_left,1439.2,img/object-9_120-levels_1D/object9F0Level55F1Level40.png,p,exemplar_display,66,115036,dense_left,p,2,TRUE,56,10,10
sub_60,1,dense_left,768.4,img/object-9_120-levels_1D/object9F0Level59F1Level40.png,q,exemplar_display,68,117547,dense_left,p,2,FALSE,60,4,4
sub_60,1,dense_left,858.5,img/object-9_120-levels_1D/object9F0Level57F1Level40.png,q,exemplar_display,70,120057,dense_left,p,2,FALSE,58,-2,2
sub_60,1,dense_left,644.6,img/object-9_120-levels_1D/object9F0Level37F1Level40.png,p,exemplar_display,72,122572,dense_left,p,2,TRUE,38,-20,20
sub_60,1,dense_left,740.8,img/object-9_120-levels_1D/object9F0Level37F1Level40.png,q,exemplar_display,74,125088,dense_left,q,2,TRUE,38,0,0
sub_60,1,dense_left,980.4,img/object-9_120-levels_1D/object9F0Level31F1Level40.png,q,exemplar_display,76,127605,dense_left,p,2,FALSE,32,-6,6
sub_60,1,dense_left,1219.3,img/object-9_120-levels_1D/object9F0Level31F1Level40.png,q,exemplar_display,78,130115,dense_left,q,2,TRUE,32,0,0
sub_60,1,dense_left,542.3,img/object-9_120-levels_1D/object9F0Level93F1Level40.png,p,exemplar_display,80,132630,dense_left,p,2,TRUE,94,62,62
sub_60,1,dense_left,1004.6,img/object-9_120-levels_1D/object9F0Level35F1Level40.png,p,exemplar_display,82,135138,dense_left,p,2,TRUE,36,-58,58
sub_60,1,dense_left,689.8,img/object-9_120-levels_1D/object9F0Level39F1Level40.png,q,exemplar_display,84,137650,dense_left,p,2,FALSE,40,4,4
sub_60,1,dense_left,579,img/object-9_120-levels_1D/object9F0Level39F1Level40.png,q,exemplar_display,86,140157,dense_left,q,2,TRUE,40,0,0
sub_60,1,dense_left,844,img/object-9_120-levels_1D/object9F0Level39F1Level40.png,q,exemplar_display,88,142663,dense_left,q,2,TRUE,40,0,0
sub_60,1,dense_left,775.6,img/object-9_120-levels_1D/object9F0Level47F1Level40.png,p,exemplar_display,90,145173,dense_left,p,2,TRUE,48,8,8
sub_60,1,dense_left,669.5,img/object-9_120-levels_1D/object9F0Level51F1Level40.png,q,exemplar_display,92,147689,dense_left,p,2,FALSE,52,4,4
sub_60,1,dense_left,621.7,img/object-9_120-levels_1D/object9F0Level29F1Level40.png,p,exemplar_display,94,150211,dense_left,p,2,TRUE,30,-22,22
sub_60,1,dense_left,816.5,img/object-9_120-levels_1D/object9F0Level29F1Level40.png,q,exemplar_display,96,152725,dense_left,q,2,TRUE,30,0,0
sub_60,1,dense_left,622.7,img/object-9_120-levels_1D/object9F0Level53F1Level40.png,p,exemplar_display,98,155241,dense_left,p,2,TRUE,54,24,24
sub_60,1,dense_left,567.7,img/object-9_120-levels_1D/object9F0Level93F1Level40.png,p,exemplar_display,100,157752,dense_left,p,2,TRUE,94,40,40
sub_60,1,dense_left,709.5,img/object-9_120-levels_1D/object9F0Level109F1Level40.png,p,exemplar_display,102,160260,dense_left,p,2,TRUE,110,16,16
sub_60,1,dense_left,659.9,img/object-9_120-levels_1D/object9F0Level67F1Level40.png,p,exemplar_display,104,162772,dense_left,p,2,TRUE,68,-42,42
sub_60,1,dense_left,,img/object-9_120-levels_1D/object9F0Level109F1Level40.png,,exemplar_display,2,31768,dense_left,p,3,,110,42,42
sub_60,1,dense_left,716.2,img/object-9_120-levels_1D/object9F0Level69F1Level40.png,p,exemplar_display,4,34294,dense_left,p,3,TRUE,70,-40,40
sub_60,1,dense_left,506.4,img/object-9_120-levels_1D/object9F0Level69F1Level40.png,q,exemplar_display,6,36812,dense_left,q,3,TRUE,70,0,0
sub_60,1,dense_left,603.5,img/object-9_120-levels_1D/object9F0Level57F1Level40.png,p,exemplar_display,8,39338,dense_left,p,3,TRUE,58,-12,12
sub_60,1,dense_left,492.1,img/object-9_120-levels_1D/object9F0Level33F1Level40.png,p,exemplar_display,10,41857,dense_left,p,3,TRUE,34,-24,24
sub_60,1,dense_left,797.6999999,img/object-9_120-levels_1D/object9F0Level109F1Level40.png,p,exemplar_display,12,44365,dense_left,p,3,TRUE,110,76,76
sub_60,1,dense_left,660.5999999,img/object-9_120-levels_1D/object9F0Level109F1Level40.png,q,exemplar_display,14,46870,dense_left,q,3,TRUE,110,0,0
sub_60,1,dense_left,707.4,img/object-9_120-levels_1D/object9F0Level31F1Level40.png,p,exemplar_display,16,49386,dense_left,p,3,TRUE,32,-78,78
sub_60,1,dense_left,549.9000001,img/object-9_120-levels_1D/object9F0Level85F1Level40.png,p,exemplar_display,18,51905,dense_left,p,3,TRUE,86,54,54
sub_60,1,dense_left,689,img/object-9_120-levels_1D/object9F0Level49F1Level40.png,p,exemplar_display,20,54424,dense_left,p,3,TRUE,50,-36,36
sub_60,1,dense_left,816.7,img/object-9_120-levels_1D/object9F0Level59F1Level40.png,p,exemplar_display,22,56941,dense_left,p,3,TRUE,60,10,10
sub_60,1,dense_left,774.9,img/object-9_120-levels_1D/object9F0Level85F1Level40.png,p,exemplar_display,24,59461,dense_left,p,3,TRUE,86,26,26
sub_60,1,dense_left,1358.3,img/object-9_120-levels_1D/object9F0Level101F1Level40.png,p,exemplar_display,26,61970,dense_left,p,3,TRUE,102,16,16
sub_60,1,dense_left,672.6,img/object-9_120-levels_1D/object9F0Level29F1Level40.png,p,exemplar_display,28,64483,dense_left,p,3,TRUE,30,-72,72
sub_60,1,dense_left,1295.6,img/object-9_120-levels_1D/object9F0Level45F1Level40.png,p,exemplar_display,30,66990,dense_left,p,3,TRUE,46,16,16
sub_60,1,dense_left,628,img/object-9_120-levels_1D/object9F0Level51F1Level40.png,q,exemplar_display,32,69502,dense_left,p,3,FALSE,52,6,6
sub_60,1,dense_left,859.9,img/object-9_120-levels_1D/object9F0Level33F1Level40.png,p,exemplar_display,34,72014,dense_left,p,3,TRUE,34,-18,18
sub_60,1,dense_left,629.1999999,img/object-9_120-levels_1D/object9F0Level33F1Level40.png,q,exemplar_display,36,74533,dense_left,q,3,TRUE,34,0,0
sub_60,1,dense_left,661.5,img/object-9_120-levels_1D/object9F0Level51F1Level40.png,p,exemplar_display,38,77060,dense_left,p,3,TRUE,52,18,18
sub_60,1,dense_left,493.7,img/object-9_120-levels_1D/object9F0Level51F1Level40.png,q,exemplar_display,40,79593,dense_left,q,3,TRUE,52,0,0
sub_60,1,dense_left,570,img/object-9_120-levels_1D/object9F0Level63F1Level40.png,p,exemplar_display,42,82114,dense_left,p,3,TRUE,64,12,12
sub_60,1,dense_left,858.3,img/object-9_120-levels_1D/object9F0Level41F1Level40.png,p,exemplar_display,44,84630,dense_left,p,3,TRUE,42,-22,22
sub_60,1,dense_left,688.4,img/object-9_120-levels_1D/object9F0Level43F1Level40.png,q,exemplar_display,46,87147,dense_left,p,3,FALSE,44,2,2
sub_60,1,dense_left,796.5,img/object-9_120-levels_1D/object9F0Level43F1Level40.png,q,exemplar_display,48,89668,dense_left,q,3,TRUE,44,0,0
sub_60,1,dense_left,527.5,img/object-9_120-levels_1D/object9F0Level65F1Level40.png,p,exemplar_display,50,92181,dense_left,p,3,TRUE,66,22,22
sub_60,1,dense_left,611.5,img/object-9_120-levels_1D/object9F0Level65F1Level40.png,q,exemplar_display,52,94700,dense_left,q,3,TRUE,66,0,0
sub_60,1,dense_left,585.6999999,img/object-9_120-levels_1D/object9F0Level45F1Level40.png,p,exemplar_display,54,97218,dense_left,p,3,TRUE,46,-20,20
sub_60,1,dense_left,872.0999999,img/object-9_120-levels_1D/object9F0Level45F1Level40.png,q,exemplar_display,56,99734,dense_left,q,3,TRUE,46,0,0
sub_60,1,dense_left,796.4000001,img/object-9_120-levels_1D/object9F0Level53F1Level40.png,p,exemplar_display,58,102245,dense_left,p,3,TRUE,54,8,8
sub_60,1,dense_left,674.1,img/object-9_120-levels_1D/object9F0Level53F1Level40.png,q,exemplar_display,60,104756,dense_left,q,3,TRUE,54,0,0
sub_60,1,dense_left,640.4000001,img/object-9_120-levels_1D/object9F0Level63F1Level40.png,p,exemplar_display,62,107271,dense_left,p,3,TRUE,64,10,10
sub_60,1,dense_left,742.6999999,img/object-9_120-levels_1D/object9F0Level101F1Level40.png,p,exemplar_display,64,109788,dense_left,p,3,TRUE,102,38,38
sub_60,1,dense_left,1681.3,img/object-9_120-levels_1D/object9F0Level101F1Level40.png,q,exemplar_display,66,112304,dense_left,q,3,TRUE,102,0,0
sub_60,1,dense_left,502.2,img/object-9_120-levels_1D/object9F0Level61F1Level40.png,p,exemplar_display,68,114821,dense_left,p,3,TRUE,62,-40,40
sub_60,1,dense_left,931.5999999,img/object-9_120-levels_1D/object9F0Level47F1Level40.png,p,exemplar_display,70,117343,dense_left,p,3,TRUE,48,-14,14
sub_60,1,dense_left,971.9,img/object-9_120-levels_1D/object9F0Level41F1Level40.png,p,exemplar_display,72,119853,dense_left,p,3,TRUE,42,-6,6
sub_60,1,dense_left,677.3000001,img/object-9_120-levels_1D/object9F0Level93F1Level40.png,p,exemplar_display,74,122369,dense_left,p,3,TRUE,94,52,52
sub_60,1,dense_left,2102,img/object-9_120-levels_1D/object9F0Level109F1Level40.png,q,exemplar_display,76,124979,dense_left,p,3,FALSE,110,16,16
sub_60,1,dense_left,538.4,img/object-9_120-levels_1D/object9F0Level39F1Level40.png,p,exemplar_display,78,127496,dense_left,p,3,TRUE,40,-70,70
sub_60,1,dense_left,1297.4,img/object-9_120-levels_1D/object9F0Level29F1Level40.png,p,exemplar_display,80,130023,dense_left,p,3,TRUE,30,-10,10
sub_60,1,dense_left,768.4,img/object-9_120-levels_1D/object9F0Level63F1Level40.png,p,exemplar_display,82,132541,dense_left,p,3,TRUE,64,34,34
sub_60,1,dense_left,559.6,img/object-9_120-levels_1D/object9F0Level63F1Level40.png,q,exemplar_display,84,135067,dense_left,q,3,TRUE,64,0,0
sub_60,1,dense_left,503.3000001,img/object-9_120-levels_1D/object9F0Level45F1Level40.png,p,exemplar_display,86,137582,dense_left,p,3,TRUE,46,-18,18
sub_60,1,dense_left,511.7,img/object-9_120-levels_1D/object9F0Level57F1Level40.png,q,exemplar_display,88,140106,dense_left,p,3,FALSE,58,12,12
sub_60,1,dense_left,706,img/object-9_120-levels_1D/object9F0Level65F1Level40.png,p,exemplar_display,90,142626,dense_left,p,3,TRUE,66,8,8
sub_60,1,dense_left,646.2,img/object-9_120-levels_1D/object9F0Level35F1Level40.png,p,exemplar_display,92,145151,dense_left,p,3,TRUE,36,-30,30
sub_60,1,dense_left,852.7,img/object-9_120-levels_1D/object9F0Level53F1Level40.png,p,exemplar_display,94,147673,dense_left,p,3,TRUE,54,18,18
sub_60,1,dense_left,607.4,img/object-9_120-levels_1D/object9F0Level31F1Level40.png,p,exemplar_display,96,150187,dense_left,p,3,TRUE,32,-22,22
sub_60,1,dense_left,588.5,img/object-9_120-levels_1D/object9F0Level31F1Level40.png,q,exemplar_display,98,152693,dense_left,q,3,TRUE,32,0,0
sub_60,1,dense_left,1028.7,img/object-9_120-levels_1D/object9F0Level29F1Level40.png,q,exemplar_display,100,155216,dense_left,p,3,FALSE,30,-2,2
sub_60,1,dense_left,830.1,img/object-9_120-levels_1D/object9F0Level55F1Level40.png,p,exemplar_display,102,157731,dense_left,p,3,TRUE,56,26,26
sub_60,1,dense_left,491.8,img/object-9_120-levels_1D/object9F0Level33F1Level40.png,p,exemplar_display,104,160251,dense_left,p,3,TRUE,34,-22,22
sub_60,1,dense_left,,img/object-9_120-levels_1D/object9F0Level33F1Level40.png,,exemplar_display,2,28829,dense_left,q,4,,34,0,0
sub_60,1,dense_left,1332.4,img/object-9_120-levels_1D/object9F0Level109F1Level40.png,p,exemplar_display,4,31359,dense_left,p,4,TRUE,110,76,76
sub_60,1,dense_left,721.3,img/object-9_120-levels_1D/object9F0Level109F1Level40.png,q,exemplar_display,6,33874,dense_left,q,4,TRUE,110,0,0
sub_60,1,dense_left,583.9,img/object-9_120-levels_1D/object9F0Level39F1Level40.png,p,exemplar_display,8,36384,dense_left,p,4,TRUE,40,-70,70
sub_60,1,dense_left,695,img/object-9_120-levels_1D/object9F0Level43F1Level40.png,q,exemplar_display,10,38903,dense_left,p,4,FALSE,44,4,4
sub_60,1,dense_left,601.9,img/object-9_120-levels_1D/object9F0Level59F1Level40.png,p,exemplar_display,12,41424,dense_left,p,4,TRUE,60,16,16
sub_60,1,dense_left,1047.4,img/object-9_120-levels_1D/object9F0Level77F1Level40.png,p,exemplar_display,14,43937,dense_left,p,4,TRUE,78,18,18
sub_60,1,dense_left,988.6,img/object-9_120-levels_1D/object9F0Level53F1Level40.png,p,exemplar_display,16,46456,dense_left,p,4,TRUE,54,-24,24
sub_60,1,dense_left,980.1,img/object-9_120-levels_1D/object9F0Level63F1Level40.png,p,exemplar_display,18,48970,dense_left,p,4,TRUE,64,10,10
sub_60,1,dense_left,784.6,img/object-9_120-levels_1D/object9F0Level93F1Level40.png,p,exemplar_display,20,51486,dense_left,p,4,TRUE,94,30,30
sub_60,1,dense_left,669.2,img/object-9_120-levels_1D/object9F0Level59F1Level40.png,p,exemplar_display,22,54004,dense_left,p,4,TRUE,60,-34,34
sub_60,1,dense_left,602.7,img/object-9_120-levels_1D/object9F0Level59F1Level40.png,q,exemplar_display,24,56517,dense_left,q,4,TRUE,60,0,0
sub_60,1,dense_left,942.6,img/object-9_120-levels_1D/object9F0Level49F1Level40.png,p,exemplar_display,26,59025,dense_left,p,4,TRUE,50,-10,10
sub_60,1,dense_left,655.2,img/object-9_120-levels_1D/object9F0Level49F1Level40.png,q,exemplar_display,28,61538,dense_left,q,4,TRUE,50,0,0
sub_60,1,dense_left,831.6999999,img/object-9_120-levels_1D/object9F0Level93F1Level40.png,p,exemplar_display,30,64055,dense_left,p,4,TRUE,94,44,44
sub_60,1,dense_left,745,img/object-9_120-levels_1D/object9F0Level35F1Level40.png,p,exemplar_display,32,66564,dense_left,p,4,TRUE,36,-58,58
sub_60,1,dense_left,1066,img/object-9_120-levels_1D/object9F0Level51F1Level40.png,p,exemplar_display,34,69074,dense_left,p,4,TRUE,52,16,16
sub_60,1,dense_left,1367.2,img/object-9_120-levels_1D/object9F0Level57F1Level40.png,q,exemplar_display,36,71595,dense_left,p,4,FALSE,58,6,6
sub_60,1,dense_left,1181,img/object-9_120-levels_1D/object9F0Level53F1Level40.png,q,exemplar_display,38,74113,dense_left,p,4,FALSE,54,-4,4
sub_60,1,dense_left,1095.3,img/object-9_120-levels_1D/object9F0Level61F1Level40.png,p,exemplar_display,40,76626,dense_left,p,4,TRUE,62,8,8
sub_60,1,dense_left,686.9,img/object-9_120-levels_1D/object9F0Level33F1Level40.png,p,exemplar_display,42,79140,dense_left,p,4,TRUE,34,-28,28
sub_60,1,dense_left,725.7,img/object-9_120-levels_1D/object9F0Level63F1Level40.png,p,exemplar_display,44,81654,dense_left,p,4,TRUE,64,30,30
sub_60,1,dense_left,694.5,img/object-9_120-levels_1D/object9F0Level67F1Level40.png,q,exemplar_display,46,84172,dense_left,p,4,FALSE,68,4,4
sub_60,1,dense_left,1103.5,img/object-9_120-levels_1D/object9F0Level67F1Level40.png,q,exemplar_display,48,86686,dense_left,q,4,TRUE,68,0,0
sub_60,1,dense_left,1044.6,img/object-9_120-levels_1D/object9F0Level31F1Level40.png,p,exemplar_display,50,89205,dense_left,p,4,TRUE,32,-36,36
sub_60,1,dense_left,794.3000001,img/object-9_120-levels_1D/object9F0Level69F1Level40.png,p,exemplar_display,52,91719,dense_left,p,4,TRUE,70,38,38
sub_60,1,dense_left,771,img/object-9_120-levels_1D/object9F0Level49F1Level40.png,p,exemplar_display,54,94239,dense_left,p,4,TRUE,50,-20,20
sub_60,1,dense_left,875.6999999,img/object-9_120-levels_1D/object9F0Level85F1Level40.png,p,exemplar_display,56,96747,dense_left,p,4,TRUE,86,36,36
sub_60,1,dense_left,909.6999999,img/object-9_120-levels_1D/object9F0Level65F1Level40.png,p,exemplar_display,58,99264,dense_left,p,4,TRUE,66,-20,20
