prolific_id,pilot_paradigm,counterbalancing,query_stimulus,ref_left_stimulus,ref_right_stimulus,ref_left_y_offset,ref_right_y_offset,rt,response,trial_stage,trial_index,time_elapsed,session,correct,correct_response,query_item,ref_left,ref_right,dist_query_ref_left,dist_query_ref_right,dist_ref_left_ref_right,abs_dist_query_ref_left,abs_dist_query_ref_right,abs_dist_ref_left_ref_right,triplet_left_right_name,ref_lowdim,ref_highdim,dist_query_ref_lowdim,dist_query_ref_highdim,dist_ref_lowdim_ref_highdim,dist_abs_query_ref_lowdim,dist_abs_query_ref_highdim,dist_abs_ref_lowdim_ref_highdim,triplet_unique_name,template_distances,template_abs_distances,triplet_rep,template_distances_rep,template_abs_distances_rep,triplet_easiness,query_position,chosen_ref_value,chosen_ref_lowdim_highdim,chose_towards_sparse_python,chosen_ref_numerics,correct_ref_lowdim_highdim,correct_ref_left_right,correct_numeric,triplet_location,correct_ref_towards_dense_sparse,chose_towards_sparse,chose_towards_highdim
sub_17,2,dense_right,img/object-9_120-levels_1D/object9F0Level69F1Level40.png,img/object-9_120-levels_1D/object9F0Level61F1Level40.png,img/object-9_120-levels_1D/object9F0Level77F1Level40.png,0,0,2873.09999999404,p,pre_exposure,1,4665,1,,"",70,62,78,8,-8,-16,8,8,16,70_62_78,62,78,8,-8,-16,8,8,16,70_62_78,8_-8_-16,8_8_16,1,1,1,0,query_middle,78,ref_highdim,0,2,,nan,,across_density_regions,nan,0,1
sub_17,2,dense_right,img/object-9_120-levels_1D/object9F0Level45F1Level40.png,img/object-9_120-levels_1D/object9F0Level53F1Level40.png,img/object-9_120-levels_1D/object9F0Level29F1Level40.png,0,0,1497.70000000298,p,pre_exposure,2,7182,1,FALSE,q,46,54,30,-8,16,24,8,16,24,46_54_30,30,54,16,-8,-24,16,8,24,46_30_54,16_-8_-24,8_16_24,1,1,1,8,query_middle,30,ref_lowdim,1,1,ref_highdim,ref_left,0,sparse_region,ref_towards_dense,1,0
sub_17,2,dense_right,img/object-9_120-levels_1D/object9F0Level85F1Level40.png,img/object-9_120-levels_1D/object9F0Level61F1Level40.png,img/object-9_120-levels_1D/object9F0Level109F1Level40.png,0,0,1532.79999999702,q,pre_exposure,3,9700,1,,"",86,62,110,24,-24,-48,24,24,48,86_62_110,62,110,24,-24,-48,24,24,48,86_62_110,24_-24_-48,24_24_48,1,1,1,0,query_middle,62,ref_lowdim,1,1,,nan,,dense_region,nan,1,0
sub_17,2,dense_right,img/object-9_120-levels_1D/object9F0Level69F1Level40.png,img/object-9_120-levels_1D/object9F0Level61F1Level40.png,img/object-9_120-levels_1D/object9F0Level93F1Level40.png,0,0,1216.29999999702,q,pre_exposure,4,12216,1,TRUE,q,70,62,94,8,-24,-32,8,24,32,70_62_94,62,94,8,-24,-32,8,24,32,70_62_94,8_-24_-32,8_24_32,1,1,1,16,query_middle,62,ref_lowdim,1,1,ref_lowdim,ref_left,1,across_density_regions,ref_towards_sparse,1,0
sub_17,2,dense_right,img/object-9_120-levels_1D/object9F0Level53F1Level40.png,img/object-9_120-levels_1D/object9F0Level69F1Level40.png,img/object-9_120-levels_1D/object9F0Level29F1Level40.png,0,0,939.800000011921,p,pre_exposure,5,14728,1,FALSE,q,54,70,30,-16,24,40,16,24,40,54_70_30,30,70,24,-16,-40,24,16,40,54_30_70,24_-16_-40,16_24_40,1,1,1,8,query_middle,30,ref_lowdim,1,1,ref_highdim,ref_left,0,sparse_region,ref_towards_dense,1,0
sub_17,2,dense_right,img/object-9_120-levels_1D/object9F0Level69F1Level40.png,img/object-9_120-levels_1D/object9F0Level77F1Level40.png,img/object-9_120-levels_1D/object9F0Level61F1Level40.png,0,0,1237.09999999404,q,pre_exposure,6,17244,1,,"",70,78,62,-8,8,16,8,8,16,70_78_62,62,78,8,-8,-16,8,8,16,70_62_78,8_-8_-16,8_8_16,2,2,2,0,query_middle,78,ref_highdim,0,2,,nan,,across_density_regions,nan,0,1
sub_17,2,dense_right,img/object-9_120-levels_1D/object9F0Level93F1Level40.png,img/object-9_120-levels_1D/object9F0Level85F1Level40.png,img/object-9_120-levels_1D/object9F0Level109F1Level40.png,0,0,1543.79999999702,p,pre_exposure,7,19758,1,FALSE,q,94,86,110,8,-16,-24,8,16,24,94_86_110,86,110,8,-16,-24,8,16,24,94_86_110,8_-16_-24,8_16_24,1,1,2,8,query_middle,110,ref_highdim,0,2,ref_lowdim,ref_left,0,dense_region,ref_towards_sparse,0,1
sub_17,2,dense_right,img/object-9_120-levels_1D/object9F0Level69F1Level40.png,img/object-9_120-levels_1D/object9F0Level45F1Level40.png,img/object-9_120-levels_1D/object9F0Level77F1Level40.png,0,0,1006.29999999702,p,pre_exposure,8,22272,1,TRUE,p,70,46,78,24,-8,-32,24,8,32,70_46_78,46,78,24,-8,-32,24,8,32,70_46_78,24_-8_-32,8_24_32,1,1,2,16,query_middle,78,ref_highdim,0,2,ref_highdim,ref_right,1,across_density_regions,ref_towards_dense,0,1
sub_17,2,dense_right,img/object-9_120-levels_1D/object9F0Level37F1Level40.png,img/object-9_120-levels_1D/object9F0Level61F1Level40.png,img/object-9_120-levels_1D/object9F0Level29F1Level40.png,0,0,1292.39999999106,p,pre_exposure,9,24790,1,TRUE,p,38,62,30,-24,8,32,24,8,32,38_62_30,30,62,8,-24,-32,8,24,32,38_30_62,8_-24_-32,8_24_32,1,2,3,16,query_middle,30,ref_lowdim,1,1,ref_lowdim,ref_right,1,sparse_region,ref_towards_sparse,1,0
sub_17,2,dense_right,img/object-9_120-levels_1D/object9F0Level101F1Level40.png,img/object-9_120-levels_1D/object9F0Level109F1Level40.png,img/object-9_120-levels_1D/object9F0Level85F1Level40.png,0,0,1295.90000000596,q,pre_exposure,10,27302,1,TRUE,q,102,110,86,-8,16,24,8,16,24,102_110_86,86,110,16,-8,-24,16,8,24,102_86_110,16_-8_-24,8_16_24,1,2,3,8,query_middle,110,ref_highdim,0,2,ref_highdim,ref_left,1,dense_region,ref_towards_dense,0,1
sub_17,2,dense_right,img/object-9_120-levels_1D/object9F0Level69F1Level40.png,img/object-9_120-levels_1D/object9F0Level45F1Level40.png,img/object-9_120-levels_1D/object9F0Level85F1Level40.png,0,0,1213.40000000596,p,pre_exposure,11,29832,1,TRUE,p,70,46,86,24,-16,-40,24,16,40,70_46_86,46,86,24,-16,-40,24,16,40,70_46_86,24_-16_-40,16_24_40,1,2,2,8,query_middle,86,ref_highdim,0,2,ref_highdim,ref_right,1,across_density_regions,ref_towards_dense,0,1
sub_17,2,dense_right,img/object-9_120-levels_1D/object9F0Level93F1Level40.png,img/object-9_120-levels_1D/object9F0Level109F1Level40.png,img/object-9_120-levels_1D/object9F0Level69F1Level40.png,0,0,668.20000000298,q,pre_exposure,12,32336,1,TRUE,q,94,110,70,-16,24,40,16,24,40,94_110_70,70,110,24,-16,-40,24,16,40,94_70_110,24_-16_-40,16_24_40,1,3,3,8,query_middle,110,ref_highdim,0,2,ref_highdim,ref_left,1,dense_region,ref_towards_dense,0,1
sub_17,2,dense_right,img/object-9_120-levels_1D/object9F0Level69F1Level40.png,img/object-9_120-levels_1D/object9F0Level77F1Level40.png,img/object-9_120-levels_1D/object9F0Level53F1Level40.png,0,0,804.5,q,pre_exposure,13,34839,1,TRUE,q,70,78,54,-8,16,24,8,16,24,70_78_54,54,78,16,-8,-24,16,8,24,70_54_78,16_-8_-24,8_16_24,1,3,4,8,query_middle,78,ref_highdim,0,2,ref_highdim,ref_left,1,across_density_regions,ref_towards_dense,0,1
sub_17,2,dense_right,img/object-9_120-levels_1D/object9F0Level45F1Level40.png,img/object-9_120-levels_1D/object9F0Level29F1Level40.png,img/object-9_120-levels_1D/object9F0Level69F1Level40.png,0,0,1709,q,pre_exposure,14,37343,1,TRUE,q,46,30,70,16,-24,-40,16,24,40,46_30_70,30,70,16,-24,-40,16,24,40,46_30_70,16_-24_-40,16_24_40,1,1,4,8,query_middle,30,ref_lowdim,1,1,ref_lowdim,ref_left,1,sparse_region,ref_towards_sparse,1,0
sub_17,2,dense_right,img/object-9_120-levels_1D/object9F0Level37F1Level40.png,img/object-9_120-levels_1D/object9F0Level29F1Level40.png,img/object-9_120-levels_1D/object9F0Level61F1Level40.png,0,0,636.20000000298,q,pre_exposure,15,39847,1,TRUE,q,38,30,62,8,-24,-32,8,24,32,38_30_62,30,62,8,-24,-32,8,24,32,38_30_62,8_-24_-32,8_24_32,2,3,4,16,query_middle,30,ref_lowdim,1,1,ref_lowdim,ref_left,1,sparse_region,ref_towards_sparse,1,0
sub_17,2,dense_right,img/object-9_120-levels_1D/object9F0Level69F1Level40.png,img/object-9_120-levels_1D/object9F0Level85F1Level40.png,img/object-9_120-levels_1D/object9F0Level53F1Level40.png,0,0,1185.10000000894,p,pre_exposure,16,42355,1,,"",70,86,54,-16,16,32,16,16,32,70_86_54,54,86,16,-16,-32,16,16,32,70_54_86,16_-16_-32,16_16_32,1,1,1,0,query_middle,54,ref_lowdim,1,1,,nan,,across_density_regions,nan,1,0
sub_17,2,dense_right,img/object-9_120-levels_1D/object9F0Level85F1Level40.png,img/object-9_120-levels_1D/object9F0Level109F1Level40.png,img/object-9_120-levels_1D/object9F0Level77F1Level40.png,0,0,1801.20000000298,p,pre_exposure,17,44858,1,TRUE,p,86,110,78,-24,8,32,24,8,32,86_110_78,78,110,8,-24,-32,8,24,32,86_78_110,8_-24_-32,8_24_32,1,4,5,16,query_middle,78,ref_lowdim,1,1,ref_lowdim,ref_right,1,dense_region,ref_towards_sparse,1,0
sub_17,2,dense_right,img/object-9_120-levels_1D/object9F0Level69F1Level40.png,img/object-9_120-levels_1D/object9F0Level77F1Level40.png,img/object-9_120-levels_1D/object9F0Level45F1Level40.png,0,0,1234.19999998808,q,pre_exposure,18,47365,1,TRUE,q,70,78,46,-8,24,32,8,24,32,70_78_46,46,78,24,-8,-32,24,8,32,70_46_78,24_-8_-32,8_24_32,2,2,6,16,query_middle,78,ref_highdim,0,2,ref_highdim,ref_left,1,across_density_regions,ref_towards_dense,0,1
sub_17,2,dense_right,img/object-9_120-levels_1D/object9F0Level85F1Level40.png,img/object-9_120-levels_1D/object9F0Level109F1Level40.png,img/object-9_120-levels_1D/object9F0Level69F1Level40.png,0,0,990.300000011921,p,pre_exposure,19,49869,1,TRUE,p,86,110,70,-24,16,40,24,16,40,86_110_70,70,110,16,-24,-40,16,24,40,86_70_110,16_-24_-40,16_24_40,1,2,5,8,query_middle,70,ref_lowdim,1,1,ref_lowdim,ref_right,1,dense_region,ref_towards_sparse,1,0
sub_17,2,dense_right,img/object-9_120-levels_1D/object9F0Level101F1Level40.png,img/object-9_120-levels_1D/object9F0Level109F1Level40.png,img/object-9_120-levels_1D/object9F0Level93F1Level40.png,0,0,2056.19999998808,q,pre_exposure,20,52427,1,,"",102,110,94,-8,8,16,8,8,16,102_110_94,94,110,8,-8,-16,8,8,16,102_94_110,8_-8_-16,8_8_16,1,3,3,0,query_middle,110,ref_highdim,0,2,,nan,,dense_region,nan,0,1
sub_17,2,dense_right,img/object-9_120-levels_1D/object9F0Level69F1Level40.png,img/object-9_120-levels_1D/object9F0Level85F1Level40.png,img/object-9_120-levels_1D/object9F0Level45F1Level40.png,0,0,952.70000000298,p,pre_exposure,21,54931,1,FALSE,q,70,86,46,-16,24,40,16,24,40,70_86_46,46,86,24,-16,-40,24,16,40,70_46_86,24_-16_-40,16_24_40,2,4,6,8,query_middle,46,ref_lowdim,1,1,ref_highdim,ref_left,0,across_density_regions,ref_towards_dense,1,0
sub_17,2,dense_right,img/object-9_120-levels_1D/object9F0Level101F1Level40.png,img/object-9_120-levels_1D/object9F0Level77F1Level40.png,img/object-9_120-levels_1D/object9F0Level109F1Level40.png,0,0,1266.40000000596,p,pre_exposure,22,57436,1,TRUE,p,102,78,110,24,-8,-32,24,8,32,102_78_110,78,110,24,-8,-32,24,8,32,102_78_110,24_-8_-32,8_24_32,1,3,7,16,query_middle,110,ref_highdim,0,2,ref_highdim,ref_right,1,dense_region,ref_towards_dense,0,1
sub_17,2,dense_right,img/object-9_120-levels_1D/object9F0Level85F1Level40.png,img/object-9_120-levels_1D/object9F0Level69F1Level40.png,img/object-9_120-levels_1D/object9F0Level109F1Level40.png,0,0,839.5,q,pre_exposure,23,59941,1,TRUE,q,86,70,110,16,-24,-40,16,24,40,86_70_110,70,110,16,-24,-40,16,24,40,86_70_110,16_-24_-40,16_24_40,2,3,7,8,query_middle,70,ref_lowdim,1,1,ref_lowdim,ref_left,1,dense_region,ref_towards_sparse,1,0
sub_17,2,dense_right,img/object-9_120-levels_1D/object9F0Level93F1Level40.png,img/object-9_120-levels_1D/object9F0Level109F1Level40.png,img/object-9_120-levels_1D/object9F0Level77F1Level40.png,0,0,2478.59999999404,q,pre_exposure,24,62923,1,,"",94,110,78,-16,16,32,16,16,32,94_110_78,78,110,16,-16,-32,16,16,32,94_78_110,16_-16_-32,16_16_32,1,2,2,0,query_middle,110,ref_highdim,0,2,,nan,,dense_region,nan,0,1
sub_17,2,dense_right,img/object-9_120-levels_1D/object9F0Level69F1Level40.png,img/object-9_120-levels_1D/object9F0Level53F1Level40.png,img/object-9_120-levels_1D/object9F0Level85F1Level40.png,0,0,1714,q,pre_exposure,25,65426,1,,"",70,54,86,16,-16,-32,16,16,32,70_54_86,54,86,16,-16,-32,16,16,32,70_54_86,16_-16_-32,16_16_32,2,3,3,0,query_middle,54,ref_lowdim,1,1,,nan,,across_density_regions,nan,1,0
sub_17,2,dense_right,img/object-9_120-levels_1D/object9F0Level37F1Level40.png,img/object-9_120-levels_1D/object9F0Level29F1Level40.png,img/object-9_120-levels_1D/object9F0Level53F1Level40.png,0,0,2257.19999998808,p,pre_exposure,26,68188,1,FALSE,q,38,30,54,8,-16,-24,8,16,24,38_30_54,30,54,8,-16,-24,8,16,24,38_30_54,8_-16_-24,8_16_24,1,2,5,8,query_middle,54,ref_highdim,0,2,ref_lowdim,ref_left,0,sparse_region,ref_towards_sparse,0,1
sub_17,2,dense_right,img/object-9_120-levels_1D/object9F0Level93F1Level40.png,img/object-9_120-levels_1D/object9F0Level69F1Level40.png,img/object-9_120-levels_1D/object9F0Level109F1Level40.png,0,0,1175.70000000298,p,pre_exposure,27,70693,1,TRUE,p,94,70,110,24,-16,-40,24,16,40,94_70_110,70,110,24,-16,-40,24,16,40,94_70_110,24_-16_-40,16_24_40,2,5,8,8,query_middle,110,ref_highdim,0,2,ref_highdim,ref_right,1,dense_region,ref_towards_dense,0,1
sub_17,2,dense_right,img/object-9_120-levels_1D/object9F0Level69F1Level40.png,img/object-9_120-levels_1D/object9F0Level45F1Level40.png,img/object-9_120-levels_1D/object9F0Level93F1Level40.png,0,0,1850.19999998808,q,pre_exposure,1,3745,2,,"",70,46,94,24,-24,-48,24,24,48,70_46_94,46,94,24,-24,-48,24,24,48,70_46_94,24_-24_-48,24_24_48,1,2,2,0,query_middle,46,ref_lowdim,1,1,,nan,,across_density_regions,nan,1,0
sub_17,2,dense_right,img/object-9_120-levels_1D/object9F0Level101F1Level40.png,img/object-9_120-levels_1D/object9F0Level85F1Level40.png,img/object-9_120-levels_1D/object9F0Level109F1Level40.png,0,0,1240.60000000894,p,pre_exposure,2,6269,2,TRUE,p,102,86,110,16,-8,-24,16,8,24,102_86_110,86,110,16,-8,-24,16,8,24,102_86_110,16_-8_-24,8_16_24,2,4,6,8,query_middle,110,ref_highdim,0,2,ref_highdim,ref_right,1,dense_region,ref_towards_dense,0,1
sub_17,2,dense_right,img/object-9_120-levels_1D/object9F0Level69F1Level40.png,img/object-9_120-levels_1D/object9F0Level53F1Level40.png,img/object-9_120-levels_1D/object9F0Level93F1Level40.png,0,0,1223.29999999702,q,pre_exposure,3,8788,2,TRUE,q,70,54,94,16,-24,-40,16,24,40,70_54_94,54,94,16,-24,-40,16,24,40,70_54_94,16_-24_-40,16_24_40,1,4,9,8,query_middle,54,ref_lowdim,1,1,ref_lowdim,ref_left,1,across_density_regions,ref_towards_sparse,1,0
sub_17,2,dense_right,img/object-9_120-levels_1D/object9F0Level53F1Level40.png,img/object-9_120-levels_1D/object9F0Level29F1Level40.png,img/object-9_120-levels_1D/object9F0Level69F1Level40.png,0,0,1520.79999999702,p,pre_exposure,4,11303,2,TRUE,p,54,30,70,24,-16,-40,24,16,40,54_30_70,30,70,24,-16,-40,24,16,40,54_30_70,24_-16_-40,16_24_40,2,6,10,8,query_middle,70,ref_highdim,0,2,ref_highdim,ref_right,1,sparse_region,ref_towards_dense,0,1
sub_17,2,dense_right,img/object-9_120-levels_1D/object9F0Level45F1Level40.png,img/object-9_120-levels_1D/object9F0Level61F1Level40.png,img/object-9_120-levels_1D/object9F0Level29F1Level40.png,0,0,875.899999991059,p,pre_exposure,5,13831,2,,"",46,62,30,-16,16,32,16,16,32,46_62_30,30,62,16,-16,-32,16,16,32,46_30_62,16_-16_-32,16_16_32,1,4,4,0,query_middle,30,ref_lowdim,1,1,,nan,,sparse_region,nan,1,0
sub_17,2,dense_right,img/object-9_120-levels_1D/object9F0Level69F1Level40.png,img/object-9_120-levels_1D/object9F0Level53F1Level40.png,img/object-9_120-levels_1D/object9F0Level77F1Level40.png,0,0,860.400000005961,p,pre_exposure,6,16351,2,TRUE,p,70,54,78,16,-8,-24,16,8,24,70_54_78,54,78,16,-8,-24,16,8,24,70_54_78,16_-8_-24,8_16_24,2,5,7,8,query_middle,78,ref_highdim,0,2,ref_highdim,ref_right,1,across_density_regions,ref_towards_dense,0,1
sub_17,2,dense_right,img/object-9_120-levels_1D/object9F0Level85F1Level40.png,img/object-9_120-levels_1D/object9F0Level109F1Level40.png,img/object-9_120-levels_1D/object9F0Level61F1Level40.png,0,0,1252.90000000596,q,pre_exposure,7,18863,2,,"",86,110,62,-24,24,48,24,24,48,86_110_62,62,110,24,-24,-48,24,24,48,86_62_110,24_-24_-48,24_24_48,2,3,3,0,query_middle,110,ref_highdim,0,2,,nan,,dense_region,nan,0,1
sub_17,2,dense_right,img/object-9_120-levels_1D/object9F0Level45F1Level40.png,img/object-9_120-levels_1D/object9F0Level29F1Level40.png,img/object-9_120-levels_1D/object9F0Level53F1Level40.png,0,0,1469.29999999702,q,pre_exposure,8,21383,2,FALSE,p,46,30,54,16,-8,-24,16,8,24,46_30_54,30,54,16,-8,-24,16,8,24,46_30_54,16_-8_-24,8_16_24,2,6,8,8,query_middle,30,ref_lowdim,1,1,ref_highdim,ref_right,0,sparse_region,ref_towards_dense,1,0
sub_17,2,dense_right,img/object-9_120-levels_1D/object9F0Level85F1Level40.png,img/object-9_120-levels_1D/object9F0Level77F1Level40.png,img/object-9_120-levels_1D/object9F0Level109F1Level40.png,0,0,1324.29999999702,q,pre_exposure,9,23908,2,TRUE,q,86,78,110,8,-24,-32,8,24,32,86_78_110,78,110,8,-24,-32,8,24,32,86_78_110,8_-24_-32,8_24_32,2,5,8,16,query_middle,78,ref_lowdim,1,1,ref_lowdim,ref_left,1,dense_region,ref_towards_sparse,1,0
sub_17,2,dense_right,img/object-9_120-levels_1D/object9F0Level101F1Level40.png,img/object-9_120-levels_1D/object9F0Level93F1Level40.png,img/object-9_120-levels_1D/object9F0Level109F1Level40.png,0,0,1519.90000000596,p,pre_exposure,10,26437,2,,"",102,94,110,8,-8,-16,8,8,16,102_94_110,94,110,8,-8,-16,8,8,16,102_94_110,8_-8_-16,8_8_16,2,4,4,0,query_middle,110,ref_highdim,0,2,,nan,,dense_region,nan,0,1
sub_17,2,dense_right,img/object-9_120-levels_1D/object9F0Level37F1Level40.png,img/object-9_120-levels_1D/object9F0Level45F1Level40.png,img/object-9_120-levels_1D/object9F0Level29F1Level40.png,0,0,1455.5,p,pre_exposure,11,28956,2,,"",38,46,30,-8,8,16,8,8,16,38_46_30,30,46,8,-8,-16,8,8,16,38_30_46,8_-8_-16,8_8_16,1,5,5,0,query_middle,30,ref_lowdim,1,1,,nan,,sparse_region,nan,1,0
sub_17,2,dense_right,img/object-9_120-levels_1D/object9F0Level53F1Level40.png,img/object-9_120-levels_1D/object9F0Level29F1Level40.png,img/object-9_120-levels_1D/object9F0Level77F1Level40.png,0,0,1936.5,q,pre_exposure,12,31460,2,,"",54,30,78,24,-24,-48,24,24,48,54_30_78,30,78,24,-24,-48,24,24,48,54_30_78,24_-24_-48,24_24_48,1,4,4,0,query_middle,30,ref_lowdim,1,1,,nan,,sparse_region,nan,1,0
sub_17,2,dense_right,img/object-9_120-levels_1D/object9F0Level69F1Level40.png,img/object-9_120-levels_1D/object9F0Level85F1Level40.png,img/object-9_120-levels_1D/object9F0Level61F1Level40.png,0,0,1006.5,p,pre_exposure,13,33971,2,TRUE,p,70,86,62,-16,8,24,16,8,24,70_86_62,62,86,8,-16,-24,8,16,24,70_62_86,8_-16_-24,8_16_24,1,3,9,8,query_middle,62,ref_lowdim,1,1,ref_lowdim,ref_right,1,across_density_regions,ref_towards_sparse,1,0
sub_17,2,dense_right,img/object-9_120-levels_1D/object9F0Level53F1Level40.png,img/object-9_120-levels_1D/object9F0Level29F1Level40.png,img/object-9_120-levels_1D/object9F0Level61F1Level40.png,0,0,1456.89999999106,p,pre_exposure,14,36482,2,TRUE,p,54,30,62,24,-8,-32,24,8,32,54_30_62,30,62,24,-8,-32,24,8,32,54_30_62,24_-8_-32,8_24_32,1,4,9,16,query_middle,62,ref_highdim,0,2,ref_highdim,ref_right,1,sparse_region,ref_towards_dense,0,1
sub_17,2,dense_right,img/object-9_120-levels_1D/object9F0Level45F1Level40.png,img/object-9_120-levels_1D/object9F0Level29F1Level40.png,img/object-9_120-levels_1D/object9F0Level61F1Level40.png,0,0,1385.90000000596,q,pre_exposure,15,38986,2,,"",46,30,62,16,-16,-32,16,16,32,46_30_62,30,62,16,-16,-32,16,16,32,46_30_62,16_-16_-32,16_16_32,2,5,5,0,query_middle,30,ref_lowdim,1,1,,nan,,sparse_region,nan,1,0
sub_17,2,dense_right,img/object-9_120-levels_1D/object9F0Level37F1Level40.png,img/object-9_120-levels_1D/object9F0Level29F1Level40.png,img/object-9_120-levels_1D/object9F0Level45F1Level40.png,0,0,1577.60000000894,q,pre_exposure,16,41489,2,,"",38,30,46,8,-8,-16,8,8,16,38_30_46,30,46,8,-8,-16,8,8,16,38_30_46,8_-8_-16,8_8_16,2,6,6,0,query_middle,30,ref_lowdim,1,1,,nan,,sparse_region,nan,1,0
sub_17,2,dense_right,img/object-9_120-levels_1D/object9F0Level69F1Level40.png,img/object-9_120-levels_1D/object9F0Level61F1Level40.png,img/object-9_120-levels_1D/object9F0Level85F1Level40.png,0,0,1145.89999999106,q,pre_exposure,17,43994,2,TRUE,q,70,62,86,8,-16,-24,8,16,24,70_62_86,62,86,8,-16,-24,8,16,24,70_62_86,8_-16_-24,8_16_24,2,4,10,8,query_middle,62,ref_lowdim,1,1,ref_lowdim,ref_left,1,across_density_regions,ref_towards_sparse,1,0
sub_17,2,dense_right,img/object-9_120-levels_1D/object9F0Level45F1Level40.png,img/object-9_120-levels_1D/object9F0Level69F1Level40.png,img/object-9_120-levels_1D/object9F0Level29F1Level40.png,0,0,1506,p,pre_exposure,18,46498,2,TRUE,p,46,70,30,-24,16,40,24,16,40,46_70_30,30,70,16,-24,-40,16,24,40,46_30_70,16_-24_-40,16_24_40,2,5,11,8,query_middle,30,ref_lowdim,1,1,ref_lowdim,ref_right,1,sparse_region,ref_towards_sparse,1,0
sub_17,2,dense_right,img/object-9_120-levels_1D/object9F0Level53F1Level40.png,img/object-9_120-levels_1D/object9F0Level61F1Level40.png,img/object-9_120-levels_1D/object9F0Level29F1Level40.png,0,0,1225.40000000596,q,pre_exposure,19,49002,2,TRUE,q,54,62,30,-8,24,32,8,24,32,54_62_30,30,62,24,-8,-32,24,8,32,54_30_62,24_-8_-32,8_24_32,2,5,10,16,query_middle,62,ref_highdim,0,2,ref_highdim,ref_left,1,sparse_region,ref_towards_dense,0,1
sub_17,2,dense_right,img/object-9_120-levels_1D/object9F0Level69F1Level40.png,img/object-9_120-levels_1D/object9F0Level93F1Level40.png,img/object-9_120-levels_1D/object9F0Level53F1Level40.png,0,0,897.900000005961,p,pre_exposure,20,51514,2,TRUE,p,70,94,54,-24,16,40,24,16,40,70_94_54,54,94,16,-24,-40,16,24,40,70_54_94,16_-24_-40,16_24_40,2,6,12,8,query_middle,54,ref_lowdim,1,1,ref_lowdim,ref_right,1,across_density_regions,ref_towards_sparse,1,0
sub_17,2,dense_right,img/object-9_120-levels_1D/object9F0Level53F1Level40.png,img/object-9_120-levels_1D/object9F0Level77F1Level40.png,img/object-9_120-levels_1D/object9F0Level29F1Level40.png,0,0,1777.60000000894,p,pre_exposure,21,54027,2,,"",54,78,30,-24,24,48,24,24,48,54_78_30,30,78,24,-24,-48,24,24,48,54_30_78,24_-24_-48,24_24_48,2,5,5,0,query_middle,30,ref_lowdim,1,1,,nan,,sparse_region,nan,1,0
sub_17,2,dense_right,img/object-9_120-levels_1D/object9F0Level101F1Level40.png,img/object-9_120-levels_1D/object9F0Level109F1Level40.png,img/object-9_120-levels_1D/object9F0Level77F1Level40.png,0,0,673.29999999702,q,pre_exposure,22,56531,2,TRUE,q,102,110,78,-8,24,32,8,24,32,102_110_78,78,110,24,-8,-32,24,8,32,102_78_110,24_-8_-32,8_24_32,2,6,11,16,query_middle,110,ref_highdim,0,2,ref_highdim,ref_left,1,dense_region,ref_towards_dense,0,1
sub_17,2,dense_right,img/object-9_120-levels_1D/object9F0Level69F1Level40.png,img/object-9_120-levels_1D/object9F0Level93F1Level40.png,img/object-9_120-levels_1D/object9F0Level61F1Level40.png,0,0,761.09999999404,p,pre_exposure,23,59042,2,TRUE,p,70,94,62,-24,8,32,24,8,32,70_94_62,62,94,8,-24,-32,8,24,32,70_62_94,8_-24_-32,8_24_32,2,6,12,16,query_middle,62,ref_lowdim,1,1,ref_lowdim,ref_right,1,across_density_regions,ref_towards_sparse,1,0
sub_17,2,dense_right,img/object-9_120-levels_1D/object9F0Level93F1Level40.png,img/object-9_120-levels_1D/object9F0Level109F1Level40.png,img/object-9_120-levels_1D/object9F0Level85F1Level40.png,0,0,1202.90000000596,q,pre_exposure,24,61545,2,FALSE,p,94,110,86,-16,8,24,16,8,24,94_110_86,86,110,8,-16,-24,8,16,24,94_86_110,8_-16_-24,8_16_24,2,5,11,8,query_middle,110,ref_highdim,0,2,ref_lowdim,ref_right,0,dense_region,ref_towards_sparse,0,1
sub_17,2,dense_right,img/object-9_120-levels_1D/object9F0Level37F1Level40.png,img/object-9_120-levels_1D/object9F0Level53F1Level40.png,img/object-9_120-levels_1D/object9F0Level29F1Level40.png,0,0,939.59999999404,p,pre_exposure,25,64056,2,TRUE,p,38,54,30,-16,8,24,16,8,24,38_54_30,30,54,8,-16,-24,8,16,24,38_30_54,8_-16_-24,8_16_24,2,6,12,8,query_middle,30,ref_lowdim,1,1,ref_lowdim,ref_right,1,sparse_region,ref_towards_sparse,1,0
sub_17,2,dense_right,img/object-9_120-levels_1D/object9F0Level69F1Level40.png,img/object-9_120-levels_1D/object9F0Level93F1Level40.png,img/object-9_120-levels_1D/object9F0Level45F1Level40.png,0,0,1941.20000000298,q,pre_exposure,26,66559,2,,"",70,94,46,-24,24,48,24,24,48,70_94_46,46,94,24,-24,-48,24,24,48,70_46_94,24_-24_-48,24_24_48,2,6,6,0,query_middle,94,ref_highdim,0,2,,nan,,across_density_regions,nan,0,1
sub_17,2,dense_right,img/object-9_120-levels_1D/object9F0Level93F1Level40.png,img/object-9_120-levels_1D/object9F0Level77F1Level40.png,img/object-9_120-levels_1D/object9F0Level109F1Level40.png,0,0,829.09999999404,p,pre_exposure,27,69063,2,,"",94,78,110,16,-16,-32,16,16,32,94_78_110,78,110,16,-16,-32,16,16,32,94_78_110,16_-16_-32,16_16_32,2,6,6,0,query_middle,110,ref_highdim,0,2,,nan,,dense_region,nan,0,1
sub_17,2,dense_right,img/object-9_120-levels_1D/object9F0Level93F1Level40.png,img/object-9_120-levels_1D/object9F0Level109F1Level40.png,img/object-9_120-levels_1D/object9F0Level85F1Level40.png,0,0,,,post_exposure,1,6684,1,FALSE,p,94,110,86,-16,8,24,16,8,24,94_110_86,86,110,8,-16,-24,8,16,24,94_86_110,8_-16_-24,8_16_24,1,1,1,8,query_middle,,nan,,0,ref_lowdim,ref_right,0,dense_region,ref_towards_sparse,,
sub_17,2,dense_right,img/object-9_120-levels_1D/object9F0Level45F1Level40.png,img/object-9_120-levels_1D/object9F0Level61F1Level40.png,img/object-9_120-levels_1D/object9F0Level29F1Level40.png,0,0,881,p,post_exposure,2,9212,1,,"",46,62,30,-16,16,32,16,16,32,46_62_30,30,62,16,-16,-32,16,16,32,46_30_62,16_-16_-32,16_16_32,1,1,1,0,query_middle,30,ref_lowdim,1,1,,nan,,sparse_region,nan,1,0
sub_17,2,dense_right,img/object-9_120-levels_1D/object9F0Level37F1Level40.png,img/object-9_120-levels_1D/object9F0Level29F1Level40.png,img/object-9_120-levels_1D/object9F0Level61F1Level40.png,0,0,1018.10000000894,q,post_exposure,3,11722,1,TRUE,q,38,30,62,8,-24,-32,8,24,32,38_30_62,30,62,8,-24,-32,8,24,32,38_30_62,8_-24_-32,8_24_32,1,1,1,16,query_middle,30,ref_lowdim,1,1,ref_lowdim,ref_left,1,sparse_region,ref_towards_sparse,1,0
sub_17,2,dense_right,img/object-9_120-levels_1D/object9F0Level69F1Level40.png,img/object-9_120-levels_1D/object9F0Level53F1Level40.png,img/object-9_120-levels_1D/object9F0Level93F1Level40.png,0,0,762.899999991059,q,post_exposure,4,14245,1,TRUE,q,70,54,94,16,-24,-40,16,24,40,70_54_94,54,94,16,-24,-40,16,24,40,70_54_94,16_-24_-40,16_24_40,1,1,1,8,query_middle,54,ref_lowdim,1,1,ref_lowdim,ref_left,1,across_density_regions,ref_towards_sparse,1,0
sub_17,2,dense_right,img/object-9_120-levels_1D/object9F0Level101F1Level40.png,img/object-9_120-levels_1D/object9F0Level93F1Level40.png,img/object-9_120-levels_1D/object9F0Level109F1Level40.png,0,0,1671.90000000596,p,post_exposure,5,16771,1,,"",102,94,110,8,-8,-16,8,8,16,102_94_110,94,110,8,-8,-16,8,8,16,102_94_110,8_-8_-16,8_8_16,1,1,1,0,query_middle,110,ref_highdim,0,2,,nan,,dense_region,nan,0,1
sub_17,2,dense_right,img/object-9_120-levels_1D/object9F0Level85F1Level40.png,img/object-9_120-levels_1D/object9F0Level109F1Level40.png,img/object-9_120-levels_1D/object9F0Level77F1Level40.png,0,0,1985.60000000894,p,post_exposure,6,19297,1,TRUE,p,86,110,78,-24,8,32,24,8,32,86_110_78,78,110,8,-24,-32,8,24,32,86_78_110,8_-24_-32,8_24_32,1,2,2,16,query_middle,78,ref_lowdim,1,1,ref_lowdim,ref_right,1,dense_region,ref_towards_sparse,1,0
sub_17,2,dense_right,img/object-9_120-levels_1D/object9F0Level53F1Level40.png,img/object-9_120-levels_1D/object9F0Level29F1Level40.png,img/object-9_120-levels_1D/object9F0Level77F1Level40.png,0,0,1317.29999999702,q,post_exposure,7,21807,1,,"",54,30,78,24,-24,-48,24,24,48,54_30_78,30,78,24,-24,-48,24,24,48,54_30_78,24_-24_-48,24_24_48,1,1,1,0,query_middle,30,ref_lowdim,1,1,,nan,,sparse_region,nan,1,0
sub_17,2,dense_right,img/object-9_120-levels_1D/object9F0Level69F1Level40.png,img/object-9_120-levels_1D/object9F0Level45F1Level40.png,img/object-9_120-levels_1D/object9F0Level85F1Level40.png,0,0,1437.40000000596,q,post_exposure,8,24321,1,FALSE,p,70,46,86,24,-16,-40,24,16,40,70_46_86,46,86,24,-16,-40,24,16,40,70_46_86,24_-16_-40,16_24_40,1,1,2,8,query_middle,46,ref_lowdim,1,1,ref_highdim,ref_right,0,across_density_regions,ref_towards_dense,1,0
sub_17,2,dense_right,img/object-9_120-levels_1D/object9F0Level53F1Level40.png,img/object-9_120-levels_1D/object9F0Level29F1Level40.png,img/object-9_120-levels_1D/object9F0Level69F1Level40.png,0,0,1052.80000001192,p,post_exposure,9,26842,1,TRUE,p,54,30,70,24,-16,-40,24,16,40,54_30_70,30,70,24,-16,-40,24,16,40,54_30_70,24_-16_-40,16_24_40,1,2,3,8,query_middle,70,ref_highdim,0,2,ref_highdim,ref_right,1,sparse_region,ref_towards_dense,0,1
sub_17,2,dense_right,img/object-9_120-levels_1D/object9F0Level45F1Level40.png,img/object-9_120-levels_1D/object9F0Level69F1Level40.png,img/object-9_120-levels_1D/object9F0Level29F1Level40.png,0,0,1690.30000001192,p,post_exposure,10,29367,1,TRUE,p,46,70,30,-24,16,40,24,16,40,46_70_30,30,70,16,-24,-40,16,24,40,46_30_70,16_-24_-40,16_24_40,1,2,4,8,query_middle,30,ref_lowdim,1,1,ref_lowdim,ref_right,1,sparse_region,ref_towards_sparse,1,0
sub_17,2,dense_right,img/object-9_120-levels_1D/object9F0Level69F1Level40.png,img/object-9_120-levels_1D/object9F0Level45F1Level40.png,img/object-9_120-levels_1D/object9F0Level77F1Level40.png,0,0,998,p,post_exposure,11,31870,1,TRUE,p,70,46,78,24,-8,-32,24,8,32,70_46_78,46,78,24,-8,-32,24,8,32,70_46_78,24_-8_-32,8_24_32,1,1,3,16,query_middle,78,ref_highdim,0,2,ref_highdim,ref_right,1,across_density_regions,ref_towards_dense,0,1
sub_17,2,dense_right,img/object-9_120-levels_1D/object9F0Level85F1Level40.png,img/object-9_120-levels_1D/object9F0Level109F1Level40.png,img/object-9_120-levels_1D/object9F0Level69F1Level40.png,0,0,1255.79999999702,q,post_exposure,12,34374,1,FALSE,p,86,110,70,-24,16,40,24,16,40,86_110_70,70,110,16,-24,-40,16,24,40,86_70_110,16_-24_-40,16_24_40,1,3,5,8,query_middle,110,ref_highdim,0,2,ref_lowdim,ref_right,0,dense_region,ref_towards_sparse,0,1
sub_17,2,dense_right,img/object-9_120-levels_1D/object9F0Level53F1Level40.png,img/object-9_120-levels_1D/object9F0Level29F1Level40.png,img/object-9_120-levels_1D/object9F0Level61F1Level40.png,0,0,862.79999999702,p,post_exposure,13,36879,1,TRUE,p,54,30,62,24,-8,-32,24,8,32,54_30_62,30,62,24,-8,-32,24,8,32,54_30_62,24_-8_-32,8_24_32,1,2,4,16,query_middle,62,ref_highdim,0,2,ref_highdim,ref_right,1,sparse_region,ref_towards_dense,0,1
sub_17,2,dense_right,img/object-9_120-levels_1D/object9F0Level69F1Level40.png,img/object-9_120-levels_1D/object9F0Level77F1Level40.png,img/object-9_120-levels_1D/object9F0Level61F1Level40.png,0,0,1453.29999999702,p,post_exposure,14,39384,1,,"",70,78,62,-8,8,16,8,8,16,70_78_62,62,78,8,-8,-16,8,8,16,70_62_78,8_-8_-16,8_8_16,1,2,2,0,query_middle,62,ref_lowdim,1,1,,nan,,across_density_regions,nan,1,0
sub_17,2,dense_right,img/object-9_120-levels_1D/object9F0Level101F1Level40.png,img/object-9_120-levels_1D/object9F0Level109F1Level40.png,img/object-9_120-levels_1D/object9F0Level85F1Level40.png,0,0,885.400000005961,q,post_exposure,15,41888,1,TRUE,q,102,110,86,-8,16,24,8,16,24,102_110_86,86,110,16,-8,-24,16,8,24,102_86_110,16_-8_-24,8_16_24,1,1,2,8,query_middle,110,ref_highdim,0,2,ref_highdim,ref_left,1,dense_region,ref_towards_dense,0,1
sub_17,2,dense_right,img/object-9_120-levels_1D/object9F0Level69F1Level40.png,img/object-9_120-levels_1D/object9F0Level85F1Level40.png,img/object-9_120-levels_1D/object9F0Level61F1Level40.png,0,0,709.20000000298,p,post_exposure,16,44391,1,TRUE,p,70,86,62,-16,8,24,16,8,24,70_86_62,62,86,8,-16,-24,8,16,24,70_62_86,8_-16_-24,8_16_24,1,2,3,8,query_middle,62,ref_lowdim,1,1,ref_lowdim,ref_right,1,across_density_regions,ref_towards_sparse,1,0
sub_17,2,dense_right,img/object-9_120-levels_1D/object9F0Level85F1Level40.png,img/object-9_120-levels_1D/object9F0Level109F1Level40.png,img/object-9_120-levels_1D/object9F0Level61F1Level40.png,0,0,750.899999991059,p,post_exposure,17,46894,1,,"",86,110,62,-24,24,48,24,24,48,86_110_62,62,110,24,-24,-48,24,24,48,86_62_110,24_-24_-48,24_24_48,1,2,2,0,query_middle,62,ref_lowdim,1,1,,nan,,dense_region,nan,1,0
sub_17,2,dense_right,img/object-9_120-levels_1D/object9F0Level69F1Level40.png,img/object-9_120-levels_1D/object9F0Level61F1Level40.png,img/object-9_120-levels_1D/object9F0Level85F1Level40.png,0,0,806.59999999404,q,post_exposure,18,49398,1,TRUE,q,70,62,86,8,-16,-24,8,16,24,70_62_86,62,86,8,-16,-24,8,16,24,70_62_86,8_-16_-24,8_16_24,2,3,4,8,query_middle,62,ref_lowdim,1,1,ref_lowdim,ref_left,1,across_density_regions,ref_towards_sparse,1,0
sub_17,2,dense_right,img/object-9_120-levels_1D/object9F0Level101F1Level40.png,img/object-9_120-levels_1D/object9F0Level109F1Level40.png,img/object-9_120-levels_1D/object9F0Level77F1Level40.png,0,0,743,q,post_exposure,19,51903,1,TRUE,q,102,110,78,-8,24,32,8,24,32,102_110_78,78,110,24,-8,-32,24,8,32,102_78_110,24_-8_-32,8_24_32,1,3,5,16,query_middle,110,ref_highdim,0,2,ref_highdim,ref_left,1,dense_region,ref_towards_dense,0,1
sub_17,2,dense_right,img/object-9_120-levels_1D/object9F0Level69F1Level40.png,img/object-9_120-levels_1D/object9F0Level93F1Level40.png,img/object-9_120-levels_1D/object9F0Level61F1Level40.png,0,0,695.20000000298,p,post_exposure,20,54413,1,TRUE,p,70,94,62,-24,8,32,24,8,32,70_94_62,62,94,8,-24,-32,8,24,32,70_62_94,8_-24_-32,8_24_32,1,3,6,16,query_middle,62,ref_lowdim,1,1,ref_lowdim,ref_right,1,across_density_regions,ref_towards_sparse,1,0
sub_17,2,dense_right,img/object-9_120-levels_1D/object9F0Level45F1Level40.png,img/object-9_120-levels_1D/object9F0Level29F1Level40.png,img/object-9_120-levels_1D/object9F0Level61F1Level40.png,0,0,1920.5,p,post_exposure,21,56918,1,,"",46,30,62,16,-16,-32,16,16,32,46_30_62,30,62,16,-16,-32,16,16,32,46_30_62,16_-16_-32,16_16_32,2,2,2,0,query_middle,62,ref_highdim,0,2,,nan,,sparse_region,nan,0,1
sub_17,2,dense_right,img/object-9_120-levels_1D/object9F0Level93F1Level40.png,img/object-9_120-levels_1D/object9F0Level85F1Level40.png,img/object-9_120-levels_1D/object9F0Level109F1Level40.png,0,0,750.800000011921,q,post_exposure,22,59423,1,TRUE,q,94,86,110,8,-16,-24,8,16,24,94_86_110,86,110,8,-16,-24,8,16,24,94_86_110,8_-16_-24,8_16_24,2,4,5,8,query_middle,86,ref_lowdim,1,1,ref_lowdim,ref_left,1,dense_region,ref_towards_sparse,1,0
sub_17,2,dense_right,img/object-9_120-levels_1D/object9F0Level69F1Level40.png,img/object-9_120-levels_1D/object9F0Level77F1Level40.png,img/object-9_120-levels_1D/object9F0Level53F1Level40.png,0,0,829.900000005961,q,post_exposure,23,61927,1,TRUE,q,70,78,54,-8,16,24,8,16,24,70_78_54,54,78,16,-8,-24,16,8,24,70_54_78,16_-8_-24,8_16_24,1,2,6,8,query_middle,78,ref_highdim,0,2,ref_highdim,ref_left,1,across_density_regions,ref_towards_dense,0,1
sub_17,2,dense_right,img/object-9_120-levels_1D/object9F0Level37F1Level40.png,img/object-9_120-levels_1D/object9F0Level53F1Level40.png,img/object-9_120-levels_1D/object9F0Level29F1Level40.png,0,0,998.600000008941,p,post_exposure,24,64431,1,TRUE,p,38,54,30,-16,8,24,16,8,24,38_54_30,30,54,8,-16,-24,8,16,24,38_30_54,8_-16_-24,8_16_24,1,5,7,8,query_middle,30,ref_lowdim,1,1,ref_lowdim,ref_right,1,sparse_region,ref_towards_sparse,1,0
sub_17,2,dense_right,img/object-9_120-levels_1D/object9F0Level69F1Level40.png,img/object-9_120-levels_1D/object9F0Level93F1Level40.png,img/object-9_120-levels_1D/object9F0Level53F1Level40.png,0,0,1190.5,p,post_exposure,25,66935,1,TRUE,p,70,94,54,-24,16,40,24,16,40,70_94_54,54,94,16,-24,-40,16,24,40,70_54_94,16_-24_-40,16_24_40,2,4,6,8,query_middle,54,ref_lowdim,1,1,ref_lowdim,ref_right,1,across_density_regions,ref_towards_sparse,1,0
sub_17,2,dense_right,img/object-9_120-levels_1D/object9F0Level53F1Level40.png,img/object-9_120-levels_1D/object9F0Level61F1Level40.png,img/object-9_120-levels_1D/object9F0Level29F1Level40.png,0,0,1142.20000000298,q,post_exposure,26,69440,1,TRUE,q,54,62,30,-8,24,32,8,24,32,54_62_30,30,62,24,-8,-32,24,8,32,54_30_62,24_-8_-32,8_24_32,2,4,7,16,query_middle,62,ref_highdim,0,2,ref_highdim,ref_left,1,sparse_region,ref_towards_dense,0,1
sub_17,2,dense_right,img/object-9_120-levels_1D/object9F0Level69F1Level40.png,img/object-9_120-levels_1D/object9F0Level93F1Level40.png,img/object-9_120-levels_1D/object9F0Level45F1Level40.png,0,0,1021.79999999702,p,post_exposure,27,71945,1,,"",70,94,46,-24,24,48,24,24,48,70_94_46,46,94,24,-24,-48,24,24,48,70_46_94,24_-24_-48,24_24_48,1,3,3,0,query_middle,46,ref_lowdim,1,1,,nan,,across_density_regions,nan,1,0
sub_17,2,dense_right,img/object-9_120-levels_1D/object9F0Level37F1Level40.png,img/object-9_120-levels_1D/object9F0Level61F1Level40.png,img/object-9_120-levels_1D/object9F0Level29F1Level40.png,0,0,1214.79999999702,p,post_exposure,1,3834,2,TRUE,p,38,62,30,-24,8,32,24,8,32,38_62_30,30,62,8,-24,-32,8,24,32,38_30_62,8_-24_-32,8_24_32,2,4,8,16,query_middle,30,ref_lowdim,1,1,ref_lowdim,ref_right,1,sparse_region,ref_towards_sparse,1,0
sub_17,2,dense_right,img/object-9_120-levels_1D/object9F0Level69F1Level40.png,img/object-9_120-levels_1D/object9F0Level53F1Level40.png,img/object-9_120-levels_1D/object9F0Level77F1Level40.png,0,0,844.70000000298,q,post_exposure,2,6352,2,FALSE,p,70,54,78,16,-8,-24,16,8,24,70_54_78,54,78,16,-8,-24,16,8,24,70_54_78,16_-8_-24,8_16_24,2,3,8,8,query_middle,54,ref_lowdim,1,1,ref_highdim,ref_right,0,across_density_regions,ref_towards_dense,1,0
sub_17,2,dense_right,img/object-9_120-levels_1D/object9F0Level53F1Level40.png,img/object-9_120-levels_1D/object9F0Level77F1Level40.png,img/object-9_120-levels_1D/object9F0Level29F1Level40.png,0,0,845.79999999702,p,post_exposure,3,8866,2,,"",54,78,30,-24,24,48,24,24,48,54_78_30,30,78,24,-24,-48,24,24,48,54_30_78,24_-24_-48,24_24_48,2,4,4,0,query_middle,30,ref_lowdim,1,1,,nan,,sparse_region,nan,1,0
sub_17,2,dense_right,img/object-9_120-levels_1D/object9F0Level69F1Level40.png,img/object-9_120-levels_1D/object9F0Level53F1Level40.png,img/object-9_120-levels_1D/object9F0Level85F1Level40.png,0,0,1141.69999998808,q,post_exposure,4,11381,2,,"",70,54,86,16,-16,-32,16,16,32,70_54_86,54,86,16,-16,-32,16,16,32,70_54_86,16_-16_-32,16_16_32,1,3,3,0,query_middle,54,ref_lowdim,1,1,,nan,,across_density_regions,nan,1,0
sub_17,2,dense_right,img/object-9_120-levels_1D/object9F0Level45F1Level40.png,img/object-9_120-levels_1D/object9F0Level29F1Level40.png,img/object-9_120-levels_1D/object9F0Level69F1Level40.png,0,0,1378.29999999702,p,post_exposure,5,13900,2,FALSE,q,46,30,70,16,-24,-40,16,24,40,46_30_70,30,70,16,-24,-40,16,24,40,46_30_70,16_-24_-40,16_24_40,2,5,7,8,query_middle,70,ref_highdim,0,2,ref_lowdim,ref_left,0,sparse_region,ref_towards_sparse,0,1
sub_17,2,dense_right,img/object-9_120-levels_1D/object9F0Level101F1Level40.png,img/object-9_120-levels_1D/object9F0Level85F1Level40.png,img/object-9_120-levels_1D/object9F0Level109F1Level40.png,0,0,1259.29999999702,p,post_exposure,6,16413,2,TRUE,p,102,86,110,16,-8,-24,16,8,24,102_86_110,86,110,16,-8,-24,16,8,24,102_86_110,16_-8_-24,8_16_24,2,4,9,8,query_middle,110,ref_highdim,0,2,ref_highdim,ref_right,1,dense_region,ref_towards_dense,0,1
sub_17,2,dense_right,img/object-9_120-levels_1D/object9F0Level69F1Level40.png,img/object-9_120-levels_1D/object9F0Level77F1Level40.png,img/object-9_120-levels_1D/object9F0Level45F1Level40.png,0,0,1650.29999999702,q,post_exposure,7,18937,2,TRUE,q,70,78,46,-8,24,32,8,24,32,70_78_46,46,78,24,-8,-32,24,8,32,70_46_78,24_-8_-32,8_24_32,2,5,9,16,query_middle,78,ref_highdim,0,2,ref_highdim,ref_left,1,across_density_regions,ref_towards_dense,0,1
sub_17,2,dense_right,img/object-9_120-levels_1D/object9F0Level85F1Level40.png,img/object-9_120-levels_1D/object9F0Level61F1Level40.png,img/object-9_120-levels_1D/object9F0Level109F1Level40.png,0,0,1685.70000000298,p,post_exposure,8,21461,2,,"",86,62,110,24,-24,-48,24,24,48,86_62_110,62,110,24,-24,-48,24,24,48,86_62_110,24_-24_-48,24_24_48,2,5,5,0,query_middle,110,ref_highdim,0,2,,nan,,dense_region,nan,0,1
sub_17,2,dense_right,img/object-9_120-levels_1D/object9F0Level93F1Level40.png,img/object-9_120-levels_1D/object9F0Level77F1Level40.png,img/object-9_120-levels_1D/object9F0Level109F1Level40.png,0,0,1746.5,q,post_exposure,9,23989,2,,"",94,78,110,16,-16,-32,16,16,32,94_78_110,78,110,16,-16,-32,16,16,32,94_78_110,16_-16_-32,16_16_32,1,4,4,0,query_middle,78,ref_lowdim,1,1,,nan,,dense_region,nan,1,0
sub_17,2,dense_right,img/object-9_120-levels_1D/object9F0Level53F1Level40.png,img/object-9_120-levels_1D/object9F0Level69F1Level40.png,img/object-9_120-levels_1D/object9F0Level29F1Level40.png,0,0,810.09999999404,p,post_exposure,10,26516,2,FALSE,q,54,70,30,-16,24,40,16,24,40,54_70_30,30,70,24,-16,-40,24,16,40,54_30_70,24_-16_-40,16_24_40,2,3,8,8,query_middle,30,ref_lowdim,1,1,ref_highdim,ref_left,0,sparse_region,ref_towards_dense,1,0
sub_17,2,dense_right,img/object-9_120-levels_1D/object9F0Level69F1Level40.png,img/object-9_120-levels_1D/object9F0Level61F1Level40.png,img/object-9_120-levels_1D/object9F0Level77F1Level40.png,0,0,1418.79999999702,p,post_exposure,11,29032,2,,"",70,62,78,8,-8,-16,8,8,16,70_62_78,62,78,8,-8,-16,8,8,16,70_62_78,8_-8_-16,8_8_16,2,3,3,0,query_middle,78,ref_highdim,0,2,,nan,,across_density_regions,nan,0,1
sub_17,2,dense_right,img/object-9_120-levels_1D/object9F0Level37F1Level40.png,img/object-9_120-levels_1D/object9F0Level29F1Level40.png,img/object-9_120-levels_1D/object9F0Level45F1Level40.png,0,0,1159,q,post_exposure,12,31536,2,,"",38,30,46,8,-8,-16,8,8,16,38_30_46,30,46,8,-8,-16,8,8,16,38_30_46,8_-8_-16,8_8_16,1,4,4,0,query_middle,30,ref_lowdim,1,1,,nan,,sparse_region,nan,1,0
sub_17,2,dense_right,img/object-9_120-levels_1D/object9F0Level45F1Level40.png,img/object-9_120-levels_1D/object9F0Level29F1Level40.png,img/object-9_120-levels_1D/object9F0Level53F1Level40.png,0,0,840.59999999404,p,post_exposure,13,34057,2,TRUE,p,46,30,54,16,-8,-24,16,8,24,46_30_54,30,54,16,-8,-24,16,8,24,46_30_54,16_-8_-24,8_16_24,1,5,10,8,query_middle,54,ref_highdim,0,2,ref_highdim,ref_right,1,sparse_region,ref_towards_dense,0,1
sub_17,2,dense_right,img/object-9_120-levels_1D/object9F0Level93F1Level40.png,img/object-9_120-levels_1D/object9F0Level109F1Level40.png,img/object-9_120-levels_1D/object9F0Level69F1Level40.png,0,0,748.899999991059,q,post_exposure,14,36561,2,TRUE,q,94,110,70,-16,24,40,16,24,40,94_110_70,70,110,24,-16,-40,24,16,40,94_70_110,24_-16_-40,16_24_40,1,4,9,8,query_middle,110,ref_highdim,0,2,ref_highdim,ref_left,1,dense_region,ref_towards_dense,0,1
sub_17,2,dense_right,img/object-9_120-levels_1D/object9F0Level69F1Level40.png,img/object-9_120-levels_1D/object9F0Level85F1Level40.png,img/object-9_120-levels_1D/object9F0Level53F1Level40.png,0,0,1038.09999999404,p,post_exposure,15,39066,2,,"",70,86,54,-16,16,32,16,16,32,70_86_54,54,86,16,-16,-32,16,16,32,70_54_86,16_-16_-32,16_16_32,2,5,5,0,query_middle,54,ref_lowdim,1,1,,nan,,across_density_regions,nan,1,0
sub_17,2,dense_right,img/object-9_120-levels_1D/object9F0Level101F1Level40.png,img/object-9_120-levels_1D/object9F0Level77F1Level40.png,img/object-9_120-levels_1D/object9F0Level109F1Level40.png,0,0,799,p,post_exposure,16,41576,2,TRUE,p,102,78,110,24,-8,-32,24,8,32,102_78_110,78,110,24,-8,-32,24,8,32,102_78_110,24_-8_-32,8_24_32,2,6,10,16,query_middle,110,ref_highdim,0,2,ref_highdim,ref_right,1,dense_region,ref_towards_dense,0,1
sub_17,2,dense_right,img/object-9_120-levels_1D/object9F0Level69F1Level40.png,img/object-9_120-levels_1D/object9F0Level85F1Level40.png,img/object-9_120-levels_1D/object9F0Level45F1Level40.png,0,0,806.600000008941,p,post_exposure,17,44079,2,FALSE,q,70,86,46,-16,24,40,16,24,40,70_86_46,46,86,24,-16,-40,24,16,40,70_46_86,24_-16_-40,16_24_40,2,5,10,8,query_middle,46,ref_lowdim,1,1,ref_highdim,ref_left,0,across_density_regions,ref_towards_dense,1,0
sub_17,2,dense_right,img/object-9_120-levels_1D/object9F0Level85F1Level40.png,img/object-9_120-levels_1D/object9F0Level77F1Level40.png,img/object-9_120-levels_1D/object9F0Level109F1Level40.png,0,0,1337.20000000298,q,post_exposure,18,46584,2,TRUE,q,86,78,110,8,-24,-32,8,24,32,86_78_110,78,110,8,-24,-32,8,24,32,86_78_110,8_-24_-32,8_24_32,2,5,11,16,query_middle,78,ref_lowdim,1,1,ref_lowdim,ref_left,1,dense_region,ref_towards_sparse,1,0
sub_17,2,dense_right,img/object-9_120-levels_1D/object9F0Level93F1Level40.png,img/object-9_120-levels_1D/object9F0Level109F1Level40.png,img/object-9_120-levels_1D/object9F0Level77F1Level40.png,0,0,951.70000000298,q,post_exposure,19,49088,2,,"",94,110,78,-16,16,32,16,16,32,94_110_78,78,110,16,-16,-32,16,16,32,94_78_110,16_-16_-32,16_16_32,2,6,6,0,query_middle,110,ref_highdim,0,2,,nan,,dense_region,nan,0,1
sub_17,2,dense_right,img/object-9_120-levels_1D/object9F0Level101F1Level40.png,img/object-9_120-levels_1D/object9F0Level109F1Level40.png,img/object-9_120-levels_1D/object9F0Level93F1Level40.png,0,0,774.699999988079,q,post_exposure,20,51593,2,,"",102,110,94,-8,8,16,8,8,16,102_110_94,94,110,8,-8,-16,8,8,16,102_94_110,8_-8_-16,8_8_16,2,5,5,0,query_middle,110,ref_highdim,0,2,,nan,,dense_region,nan,0,1
sub_17,2,dense_right,img/object-9_120-levels_1D/object9F0Level37F1Level40.png,img/object-9_120-levels_1D/object9F0Level29F1Level40.png,img/object-9_120-levels_1D/object9F0Level53F1Level40.png,0,0,734.29999999702,q,post_exposure,21,54097,2,TRUE,q,38,30,54,8,-16,-24,8,16,24,38_30_54,30,54,8,-16,-24,8,16,24,38_30_54,8_-16_-24,8_16_24,2,6,11,8,query_middle,30,ref_lowdim,1,1,ref_lowdim,ref_left,1,sparse_region,ref_towards_sparse,1,0
sub_17,2,dense_right,img/object-9_120-levels_1D/object9F0Level69F1Level40.png,img/object-9_120-levels_1D/object9F0Level45F1Level40.png,img/object-9_120-levels_1D/object9F0Level93F1Level40.png,0,0,1335.5,q,post_exposure,22,56602,2,,"",70,46,94,24,-24,-48,24,24,48,70_46_94,46,94,24,-24,-48,24,24,48,70_46_94,24_-24_-48,24_24_48,2,6,6,0,query_middle,46,ref_lowdim,1,1,,nan,,across_density_regions,nan,1,0
sub_17,2,dense_right,img/object-9_120-levels_1D/object9F0Level37F1Level40.png,img/object-9_120-levels_1D/object9F0Level45F1Level40.png,img/object-9_120-levels_1D/object9F0Level29F1Level40.png,0,0,756.70000000298,p,post_exposure,23,59121,2,,"",38,46,30,-8,8,16,8,8,16,38_46_30,30,46,8,-8,-16,8,8,16,38_30_46,8_-8_-16,8_8_16,2,6,6,0,query_middle,30,ref_lowdim,1,1,,nan,,sparse_region,nan,1,0
sub_17,2,dense_right,img/object-9_120-levels_1D/object9F0Level69F1Level40.png,img/object-9_120-levels_1D/object9F0Level61F1Level40.png,img/object-9_120-levels_1D/object9F0Level93F1Level40.png,0,0,638.5,q,post_exposure,24,61626,2,TRUE,q,70,62,94,8,-24,-32,8,24,32,70_62_94,62,94,8,-24,-32,8,24,32,70_62_94,8_-24_-32,8_24_32,2,6,12,16,query_middle,62,ref_lowdim,1,1,ref_lowdim,ref_left,1,across_density_regions,ref_towards_sparse,1,0
sub_17,2,dense_right,img/object-9_120-levels_1D/object9F0Level45F1Level40.png,img/object-9_120-levels_1D/object9F0Level53F1Level40.png,img/object-9_120-levels_1D/object9F0Level29F1Level40.png,0,0,670.09999999404,q,post_exposure,25,64143,2,TRUE,q,46,54,30,-8,16,24,8,16,24,46_54_30,30,54,16,-8,-24,16,8,24,46_30_54,16_-8_-24,8_16_24,2,6,12,8,query_middle,54,ref_highdim,0,2,ref_highdim,ref_left,1,sparse_region,ref_towards_dense,0,1
sub_17,2,dense_right,img/object-9_120-levels_1D/object9F0Level93F1Level40.png,img/object-9_120-levels_1D/object9F0Level69F1Level40.png,img/object-9_120-levels_1D/object9F0Level109F1Level40.png,0,0,969.09999999404,p,post_exposure,26,66649,2,TRUE,p,94,70,110,24,-16,-40,24,16,40,94_70_110,70,110,24,-16,-40,24,16,40,94_70_110,24_-16_-40,16_24_40,2,6,11,8,query_middle,110,ref_highdim,0,2,ref_highdim,ref_right,1,dense_region,ref_towards_dense,0,1
sub_17,2,dense_right,img/object-9_120-levels_1D/object9F0Level85F1Level40.png,img/object-9_120-levels_1D/object9F0Level69F1Level40.png,img/object-9_120-levels_1D/object9F0Level109F1Level40.png,0,0,1015.19999998808,q,post_exposure,27,69153,2,TRUE,q,86,70,110,16,-24,-40,16,24,40,86_70_110,70,110,16,-24,-40,16,24,40,86_70_110,16_-24_-40,16_24_40,2,6,12,8,query_middle,70,ref_lowdim,1,1,ref_lowdim,ref_left,1,dense_region,ref_towards_sparse,1,0
sub_18,2,dense_left,img/object-9_120-levels_1D/object9F0Level85F1Level40.png,img/object-9_120-levels_1D/object9F0Level69F1Level40.png,img/object-9_120-levels_1D/object9F0Level109F1Level40.png,0,0,913.399999991059,q,pre_exposure,1,3568,1,TRUE,q,86,70,110,16,-24,-40,16,24,40,86_70_110,70,110,16,-24,-40,16,24,40,86_70_110,16_-24_-40,16_24_40,1,1,1,8,query_middle,70,ref_lowdim,0,1,ref_lowdim,ref_left,1,sparse_region,ref_towards_dense,0,0
sub_18,2,dense_left,img/object-9_120-levels_1D/object9F0Level69F1Level40.png,img/object-9_120-levels_1D/object9F0Level53F1Level40.png,img/object-9_120-levels_1D/object9F0Level77F1Level40.png,0,0,2497.59999999404,p,pre_exposure,2,6568,1,TRUE,p,70,54,78,16,-8,-24,16,8,24,70_54_78,54,78,16,-8,-24,16,8,24,70_54_78,16_-8_-24,8_16_24,1,1,1,8,query_middle,78,ref_highdim,1,2,ref_highdim,ref_right,1,across_density_regions,ref_towards_sparse,1,1
sub_18,2,dense_left,img/object-9_120-levels_1D/object9F0Level53F1Level40.png,img/object-9_120-levels_1D/object9F0Level29F1Level40.png,img/object-9_120-levels_1D/object9F0Level69F1Level40.png,0,0,1498.09999999404,q,pre_exposure,3,9074,1,FALSE,p,54,30,70,24,-16,-40,24,16,40,54_30_70,30,70,24,-16,-40,24,16,40,54_30_70,24_-16_-40,16_24_40,1,1,2,8,query_middle,30,ref_lowdim,0,1,ref_highdim,ref_right,0,dense_region,ref_towards_sparse,0,0
sub_18,2,dense_left,img/object-9_120-levels_1D/object9F0Level93F1Level40.png,img/object-9_120-levels_1D/object9F0Level77F1Level40.png,img/object-9_120-levels_1D/object9F0Level109F1Level40.png,0,0,1166.90000000596,p,pre_exposure,4,11579,1,,"",94,78,110,16,-16,-32,16,16,32,94_78_110,78,110,16,-16,-32,16,16,32,94_78_110,16_-16_-32,16_16_32,1,1,1,0,query_middle,110,ref_highdim,1,2,,nan,,sparse_region,nan,1,1
sub_18,2,dense_left,img/object-9_120-levels_1D/object9F0Level101F1Level40.png,img/object-9_120-levels_1D/object9F0Level109F1Level40.png,img/object-9_120-levels_1D/object9F0Level93F1Level40.png,0,0,1887.10000000894,p,pre_exposure,5,14082,1,,"",102,110,94,-8,8,16,8,8,16,102_110_94,94,110,8,-8,-16,8,8,16,102_94_110,8_-8_-16,8_8_16,1,1,1,0,query_middle,94,ref_lowdim,0,1,,nan,,sparse_region,nan,0,0
sub_18,2,dense_left,img/object-9_120-levels_1D/object9F0Level45F1Level40.png,img/object-9_120-levels_1D/object9F0Level29F1Level40.png,img/object-9_120-levels_1D/object9F0Level53F1Level40.png,0,0,1159.20000000298,p,pre_exposure,6,16593,1,TRUE,p,46,30,54,16,-8,-24,16,8,24,46_30_54,30,54,16,-8,-24,16,8,24,46_30_54,16_-8_-24,8_16_24,1,2,2,8,query_middle,54,ref_highdim,1,2,ref_highdim,ref_right,1,dense_region,ref_towards_sparse,1,1
sub_18,2,dense_left,img/object-9_120-levels_1D/object9F0Level37F1Level40.png,img/object-9_120-levels_1D/object9F0Level29F1Level40.png,img/object-9_120-levels_1D/object9F0Level45F1Level40.png,0,0,998.5,p,pre_exposure,7,19101,1,,"",38,30,46,8,-8,-16,8,8,16,38_30_46,30,46,8,-8,-16,8,8,16,38_30_46,8_-8_-16,8_8_16,1,2,2,0,query_middle,46,ref_highdim,1,2,,nan,,dense_region,nan,1,1
sub_18,2,dense_left,img/object-9_120-levels_1D/object9F0Level69F1Level40.png,img/object-9_120-levels_1D/object9F0Level53F1Level40.png,img/object-9_120-levels_1D/object9F0Level93F1Level40.png,0,0,1841,q,pre_exposure,8,21607,1,TRUE,q,70,54,94,16,-24,-40,16,24,40,70_54_94,54,94,16,-24,-40,16,24,40,70_54_94,16_-24_-40,16_24_40,1,2,3,8,query_middle,54,ref_lowdim,0,1,ref_lowdim,ref_left,1,across_density_regions,ref_towards_dense,0,0
sub_18,2,dense_left,img/object-9_120-levels_1D/object9F0Level101F1Level40.png,img/object-9_120-levels_1D/object9F0Level93F1Level40.png,img/object-9_120-levels_1D/object9F0Level109F1Level40.png,0,0,2059.59999999404,p,pre_exposure,9,24168,1,,"",102,94,110,8,-8,-16,8,8,16,102_94_110,94,110,8,-8,-16,8,8,16,102_94_110,8_-8_-16,8_8_16,2,3,3,0,query_middle,110,ref_highdim,1,2,,nan,,sparse_region,nan,1,1
sub_18,2,dense_left,img/object-9_120-levels_1D/object9F0Level85F1Level40.png,img/object-9_120-levels_1D/object9F0Level77F1Level40.png,img/object-9_120-levels_1D/object9F0Level109F1Level40.png,0,0,1685.79999999702,q,pre_exposure,10,26676,1,TRUE,q,86,78,110,8,-24,-32,8,24,32,86_78_110,78,110,8,-24,-32,8,24,32,86_78_110,8_-24_-32,8_24_32,1,1,1,16,query_middle,78,ref_lowdim,0,1,ref_lowdim,ref_left,1,sparse_region,ref_towards_dense,0,0
sub_18,2,dense_left,img/object-9_120-levels_1D/object9F0Level69F1Level40.png,img/object-9_120-levels_1D/object9F0Level85F1Level40.png,img/object-9_120-levels_1D/object9F0Level61F1Level40.png,0,0,2115.80000001192,q,pre_exposure,11,29294,1,FALSE,p,70,86,62,-16,8,24,16,8,24,70_86_62,62,86,8,-16,-24,8,16,24,70_62_86,8_-16_-24,8_16_24,1,1,3,8,query_middle,86,ref_highdim,1,2,ref_lowdim,ref_right,0,across_density_regions,ref_towards_dense,1,1
sub_18,2,dense_left,img/object-9_120-levels_1D/object9F0Level45F1Level40.png,img/object-9_120-levels_1D/object9F0Level69F1Level40.png,img/object-9_120-levels_1D/object9F0Level29F1Level40.png,0,0,1185.70000000298,p,pre_exposure,12,31800,1,TRUE,p,46,70,30,-24,16,40,24,16,40,46_70_30,30,70,16,-24,-40,16,24,40,46_30_70,16_-24_-40,16_24_40,1,3,4,8,query_middle,30,ref_lowdim,0,1,ref_lowdim,ref_right,1,dense_region,ref_towards_dense,0,0
sub_18,2,dense_left,img/object-9_120-levels_1D/object9F0Level69F1Level40.png,img/object-9_120-levels_1D/object9F0Level77F1Level40.png,img/object-9_120-levels_1D/object9F0Level53F1Level40.png,0,0,1217.5,q,pre_exposure,13,34305,1,TRUE,q,70,78,54,-8,16,24,8,16,24,70_78_54,54,78,16,-8,-24,16,8,24,70_54_78,16_-8_-24,8_16_24,2,3,4,8,query_middle,78,ref_highdim,1,2,ref_highdim,ref_left,1,across_density_regions,ref_towards_sparse,1,1
sub_18,2,dense_left,img/object-9_120-levels_1D/object9F0Level45F1Level40.png,img/object-9_120-levels_1D/object9F0Level61F1Level40.png,img/object-9_120-levels_1D/object9F0Level29F1Level40.png,0,0,1424.79999999702,p,pre_exposure,14,36809,1,,"",46,62,30,-16,16,32,16,16,32,46_62_30,30,62,16,-16,-32,16,16,32,46_30_62,16_-16_-32,16_16_32,1,2,2,0,query_middle,30,ref_lowdim,0,1,,nan,,dense_region,nan,0,0
sub_18,2,dense_left,img/object-9_120-levels_1D/object9F0Level53F1Level40.png,img/object-9_120-levels_1D/object9F0Level77F1Level40.png,img/object-9_120-levels_1D/object9F0Level29F1Level40.png,0,0,1604,p,pre_exposure,15,39320,1,,"",54,78,30,-24,24,48,24,24,48,54_78_30,30,78,24,-24,-48,24,24,48,54_30_78,24_-24_-48,24_24_48,1,1,1,0,query_middle,30,ref_lowdim,0,1,,nan,,dense_region,nan,0,0
sub_18,2,dense_left,img/object-9_120-levels_1D/object9F0Level37F1Level40.png,img/object-9_120-levels_1D/object9F0Level61F1Level40.png,img/object-9_120-levels_1D/object9F0Level29F1Level40.png,0,0,1147.79999999702,p,pre_exposure,16,41829,1,TRUE,p,38,62,30,-24,8,32,24,8,32,38_62_30,30,62,8,-24,-32,8,24,32,38_30_62,8_-24_-32,8_24_32,1,2,2,16,query_middle,30,ref_lowdim,0,1,ref_lowdim,ref_right,1,dense_region,ref_towards_dense,0,0
sub_18,2,dense_left,img/object-9_120-levels_1D/object9F0Level69F1Level40.png,img/object-9_120-levels_1D/object9F0Level45F1Level40.png,img/object-9_120-levels_1D/object9F0Level77F1Level40.png,0,0,1588.60000000894,p,pre_exposure,17,44336,1,TRUE,p,70,46,78,24,-8,-32,24,8,32,70_46_78,46,78,24,-8,-32,24,8,32,70_46_78,24_-8_-32,8_24_32,1,1,3,16,query_middle,78,ref_highdim,1,2,ref_highdim,ref_right,1,across_density_regions,ref_towards_sparse,1,1
sub_18,2,dense_left,img/object-9_120-levels_1D/object9F0Level101F1Level40.png,img/object-9_120-levels_1D/object9F0Level109F1Level40.png,img/object-9_120-levels_1D/object9F0Level77F1Level40.png,0,0,1107.20000000298,q,pre_exposure,18,46844,1,TRUE,q,102,110,78,-8,24,32,8,24,32,102_110_78,78,110,24,-8,-32,24,8,32,102_78_110,24_-8_-32,8_24_32,1,2,4,16,query_middle,110,ref_highdim,1,2,ref_highdim,ref_left,1,sparse_region,ref_towards_sparse,1,1
sub_18,2,dense_left,img/object-9_120-levels_1D/object9F0Level53F1Level40.png,img/object-9_120-levels_1D/object9F0Level29F1Level40.png,img/object-9_120-levels_1D/object9F0Level77F1Level40.png,0,0,1937.10000000894,q,pre_exposure,19,49351,1,,"",54,30,78,24,-24,-48,24,24,48,54_30_78,30,78,24,-24,-48,24,24,48,54_30_78,24_-24_-48,24_24_48,2,2,2,0,query_middle,30,ref_lowdim,0,1,,nan,,dense_region,nan,0,0
sub_18,2,dense_left,img/object-9_120-levels_1D/object9F0Level85F1Level40.png,img/object-9_120-levels_1D/object9F0Level109F1Level40.png,img/object-9_120-levels_1D/object9F0Level77F1Level40.png,0,0,1591.90000000596,q,pre_exposure,20,51859,1,FALSE,p,86,110,78,-24,8,32,24,8,32,86_110_78,78,110,8,-24,-32,8,24,32,86_78_110,8_-24_-32,8_24_32,2,3,5,16,query_middle,110,ref_highdim,1,2,ref_lowdim,ref_right,0,sparse_region,ref_towards_dense,1,1
sub_18,2,dense_left,img/object-9_120-levels_1D/object9F0Level69F1Level40.png,img/object-9_120-levels_1D/object9F0Level85F1Level40.png,img/object-9_120-levels_1D/object9F0Level45F1Level40.png,0,0,1634.19999998808,q,pre_exposure,21,54366,1,TRUE,q,70,86,46,-16,24,40,16,24,40,70_86_46,46,86,24,-16,-40,24,16,40,70_46_86,24_-16_-40,16_24_40,1,2,5,8,query_middle,86,ref_highdim,1,2,ref_highdim,ref_left,1,across_density_regions,ref_towards_sparse,1,1
sub_18,2,dense_left,img/object-9_120-levels_1D/object9F0Level45F1Level40.png,img/object-9_120-levels_1D/object9F0Level29F1Level40.png,img/object-9_120-levels_1D/object9F0Level69F1Level40.png,0,0,1376.79999999702,q,pre_exposure,22,56875,1,TRUE,q,46,30,70,16,-24,-40,16,24,40,46_30_70,30,70,16,-24,-40,16,24,40,46_30_70,16_-24_-40,16_24_40,2,4,6,8,query_middle,30,ref_lowdim,0,1,ref_lowdim,ref_left,1,dense_region,ref_towards_dense,0,0
sub_18,2,dense_left,img/object-9_120-levels_1D/object9F0Level85F1Level40.png,img/object-9_120-levels_1D/object9F0Level109F1Level40.png,img/object-9_120-levels_1D/object9F0Level69F1Level40.png,0,0,881.5,q,pre_exposure,23,59382,1,FALSE,p,86,110,70,-24,16,40,24,16,40,86_110_70,70,110,16,-24,-40,16,24,40,86_70_110,16_-24_-40,16_24_40,2,5,7,8,query_middle,110,ref_highdim,1,2,ref_lowdim,ref_right,0,sparse_region,ref_towards_dense,1,1
sub_18,2,dense_left,img/object-9_120-levels_1D/object9F0Level101F1Level40.png,img/object-9_120-levels_1D/object9F0Level85F1Level40.png,img/object-9_120-levels_1D/object9F0Level109F1Level40.png,0,0,999.09999999404,p,pre_exposure,24,61890,1,TRUE,p,102,86,110,16,-8,-24,16,8,24,102_86_110,86,110,16,-8,-24,16,8,24,102_86_110,16_-8_-24,8_16_24,1,4,5,8,query_middle,110,ref_highdim,1,2,ref_highdim,ref_right,1,sparse_region,ref_towards_sparse,1,1
sub_18,2,dense_left,img/object-9_120-levels_1D/object9F0Level69F1Level40.png,img/object-9_120-levels_1D/object9F0Level93F1Level40.png,img/object-9_120-levels_1D/object9F0Level53F1Level40.png,0,0,1353.70000000298,p,pre_exposure,25,64398,1,TRUE,p,70,94,54,-24,16,40,24,16,40,70_94_54,54,94,16,-24,-40,16,24,40,70_54_94,16_-24_-40,16_24_40,2,6,8,8,query_middle,54,ref_lowdim,0,1,ref_lowdim,ref_right,1,across_density_regions,ref_towards_dense,0,0
sub_18,2,dense_left,img/object-9_120-levels_1D/object9F0Level101F1Level40.png,img/object-9_120-levels_1D/object9F0Level77F1Level40.png,img/object-9_120-levels_1D/object9F0Level109F1Level40.png,0,0,1121.39999999106,p,pre_exposure,26,66902,1,TRUE,p,102,78,110,24,-8,-32,24,8,32,102_78_110,78,110,24,-8,-32,24,8,32,102_78_110,24_-8_-32,8_24_32,2,3,6,16,query_middle,110,ref_highdim,1,2,ref_highdim,ref_right,1,sparse_region,ref_towards_sparse,1,1
sub_18,2,dense_left,img/object-9_120-levels_1D/object9F0Level69F1Level40.png,img/object-9_120-levels_1D/object9F0Level61F1Level40.png,img/object-9_120-levels_1D/object9F0Level93F1Level40.png,0,0,950.20000000298,q,pre_exposure,27,69413,1,TRUE,q,70,62,94,8,-24,-32,8,24,32,70_62_94,62,94,8,-24,-32,8,24,32,70_62_94,8_-24_-32,8_24_32,1,4,7,16,query_middle,62,ref_lowdim,0,1,ref_lowdim,ref_left,1,across_density_regions,ref_towards_dense,0,0
sub_18,2,dense_left,img/object-9_120-levels_1D/object9F0Level45F1Level40.png,img/object-9_120-levels_1D/object9F0Level29F1Level40.png,img/object-9_120-levels_1D/object9F0Level61F1Level40.png,0,0,1456,q,pre_exposure,1,3675,2,,"",46,30,62,16,-16,-32,16,16,32,46_30_62,30,62,16,-16,-32,16,16,32,46_30_62,16_-16_-32,16_16_32,2,3,3,0,query_middle,30,ref_lowdim,0,1,,nan,,dense_region,nan,0,0
sub_18,2,dense_left,img/object-9_120-levels_1D/object9F0Level101F1Level40.png,img/object-9_120-levels_1D/object9F0Level109F1Level40.png,img/object-9_120-levels_1D/object9F0Level85F1Level40.png,0,0,1019.69999998808,q,pre_exposure,2,6183,2,TRUE,q,102,110,86,-8,16,24,8,16,24,102_110_86,86,110,16,-8,-24,16,8,24,102_86_110,16_-8_-24,8_16_24,2,5,6,8,query_middle,110,ref_highdim,1,2,ref_highdim,ref_left,1,sparse_region,ref_towards_sparse,1,1
sub_18,2,dense_left,img/object-9_120-levels_1D/object9F0Level69F1Level40.png,img/object-9_120-levels_1D/object9F0Level45F1Level40.png,img/object-9_120-levels_1D/object9F0Level93F1Level40.png,0,0,1500.09999999404,q,pre_exposure,3,8690,2,,"",70,46,94,24,-24,-48,24,24,48,70_46_94,46,94,24,-24,-48,24,24,48,70_46_94,24_-24_-48,24_24_48,1,3,3,0,query_middle,46,ref_lowdim,0,1,,nan,,across_density_regions,nan,0,0
sub_18,2,dense_left,img/object-9_120-levels_1D/object9F0Level53F1Level40.png,img/object-9_120-levels_1D/object9F0Level69F1Level40.png,img/object-9_120-levels_1D/object9F0Level29F1Level40.png,0,0,1655.5,p,pre_exposure,4,11195,2,FALSE,q,54,70,30,-16,24,40,16,24,40,54_70_30,30,70,24,-16,-40,24,16,40,54_30_70,24_-16_-40,16_24_40,2,3,9,8,query_middle,30,ref_lowdim,0,1,ref_highdim,ref_left,0,dense_region,ref_towards_sparse,0,0
sub_18,2,dense_left,img/object-9_120-levels_1D/object9F0Level69F1Level40.png,img/object-9_120-levels_1D/object9F0Level53F1Level40.png,img/object-9_120-levels_1D/object9F0Level85F1Level40.png,0,0,1850.70000000298,p,pre_exposure,5,13706,2,,"",70,54,86,16,-16,-32,16,16,32,70_54_86,54,86,16,-16,-32,16,16,32,70_54_86,16_-16_-32,16_16_32,1,4,4,0,query_middle,86,ref_highdim,1,2,,nan,,across_density_regions,nan,1,1
sub_18,2,dense_left,img/object-9_120-levels_1D/object9F0Level85F1Level40.png,img/object-9_120-levels_1D/object9F0Level109F1Level40.png,img/object-9_120-levels_1D/object9F0Level61F1Level40.png,0,0,1764.79999999702,p,pre_exposure,6,16214,2,,"",86,110,62,-24,24,48,24,24,48,86_110_62,62,110,24,-24,-48,24,24,48,86_62_110,24_-24_-48,24_24_48,1,4,4,0,query_middle,62,ref_lowdim,0,1,,nan,,sparse_region,nan,0,0
sub_18,2,dense_left,img/object-9_120-levels_1D/object9F0Level69F1Level40.png,img/object-9_120-levels_1D/object9F0Level61F1Level40.png,img/object-9_120-levels_1D/object9F0Level85F1Level40.png,0,0,794.900000005961,q,pre_exposure,7,18721,2,TRUE,q,70,62,86,8,-16,-24,8,16,24,70_62_86,62,86,8,-16,-24,8,16,24,70_62_86,8_-16_-24,8_16_24,2,2,7,8,query_middle,62,ref_lowdim,0,1,ref_lowdim,ref_left,1,across_density_regions,ref_towards_dense,0,0
sub_18,2,dense_left,img/object-9_120-levels_1D/object9F0Level37F1Level40.png,img/object-9_120-levels_1D/object9F0Level53F1Level40.png,img/object-9_120-levels_1D/object9F0Level29F1Level40.png,0,0,1524.69999998808,p,pre_exposure,8,21225,2,TRUE,p,38,54,30,-16,8,24,16,8,24,38_54_30,30,54,8,-16,-24,8,16,24,38_30_54,8_-16_-24,8_16_24,1,3,8,8,query_middle,30,ref_lowdim,0,1,ref_lowdim,ref_right,1,dense_region,ref_towards_dense,0,0
sub_18,2,dense_left,img/object-9_120-levels_1D/object9F0Level53F1Level40.png,img/object-9_120-levels_1D/object9F0Level61F1Level40.png,img/object-9_120-levels_1D/object9F0Level29F1Level40.png,0,0,2484.10000000894,q,pre_exposure,9,24211,2,TRUE,q,54,62,30,-8,24,32,8,24,32,54_62_30,30,62,24,-8,-32,24,8,32,54_30_62,24_-8_-32,8_24_32,1,4,8,16,query_middle,62,ref_highdim,1,2,ref_highdim,ref_left,1,dense_region,ref_towards_sparse,1,1
sub_18,2,dense_left,img/object-9_120-levels_1D/object9F0Level69F1Level40.png,img/object-9_120-levels_1D/object9F0Level93F1Level40.png,img/object-9_120-levels_1D/object9F0Level45F1Level40.png,0,0,1210.59999999404,p,pre_exposure,10,26715,2,,"",70,94,46,-24,24,48,24,24,48,70_94_46,46,94,24,-24,-48,24,24,48,70_46_94,24_-24_-48,24_24_48,2,5,5,0,query_middle,46,ref_lowdim,0,1,,nan,,across_density_regions,nan,0,0
sub_18,2,dense_left,img/object-9_120-levels_1D/object9F0Level93F1Level40.png,img/object-9_120-levels_1D/object9F0Level109F1Level40.png,img/object-9_120-levels_1D/object9F0Level77F1Level40.png,0,0,1044.29999999702,q,pre_exposure,11,29223,2,,"",94,110,78,-16,16,32,16,16,32,94_110_78,78,110,16,-16,-32,16,16,32,94_78_110,16_-16_-32,16_16_32,2,5,5,0,query_middle,110,ref_highdim,1,2,,nan,,sparse_region,nan,1,1
sub_18,2,dense_left,img/object-9_120-levels_1D/object9F0Level69F1Level40.png,img/object-9_120-levels_1D/object9F0Level77F1Level40.png,img/object-9_120-levels_1D/object9F0Level45F1Level40.png,0,0,948.899999991059,q,pre_exposure,12,31726,2,TRUE,q,70,78,46,-8,24,32,8,24,32,70_78_46,46,78,24,-8,-32,24,8,32,70_46_78,24_-8_-32,8_24_32,2,5,9,16,query_middle,78,ref_highdim,1,2,ref_highdim,ref_left,1,across_density_regions,ref_towards_sparse,1,1
sub_18,2,dense_left,img/object-9_120-levels_1D/object9F0Level93F1Level40.png,img/object-9_120-levels_1D/object9F0Level85F1Level40.png,img/object-9_120-levels_1D/object9F0Level109F1Level40.png,0,0,1495.70000000298,p,pre_exposure,13,34233,2,FALSE,q,94,86,110,8,-16,-24,8,16,24,94_86_110,86,110,8,-16,-24,8,16,24,94_86_110,8_-16_-24,8_16_24,1,4,9,8,query_middle,110,ref_highdim,1,2,ref_lowdim,ref_left,0,sparse_region,ref_towards_dense,1,1
sub_18,2,dense_left,img/object-9_120-levels_1D/object9F0Level37F1Level40.png,img/object-9_120-levels_1D/object9F0Level29F1Level40.png,img/object-9_120-levels_1D/object9F0Level61F1Level40.png,0,0,1151.39999999106,q,pre_exposure,14,36741,2,TRUE,q,38,30,62,8,-24,-32,8,24,32,38_30_62,30,62,8,-24,-32,8,24,32,38_30_62,8_-24_-32,8_24_32,2,5,10,16,query_middle,30,ref_lowdim,0,1,ref_lowdim,ref_left,1,dense_region,ref_towards_dense,0,0
sub_18,2,dense_left,img/object-9_120-levels_1D/object9F0Level69F1Level40.png,img/object-9_120-levels_1D/object9F0Level77F1Level40.png,img/object-9_120-levels_1D/object9F0Level61F1Level40.png,0,0,1418.69999998808,q,pre_exposure,15,39248,2,,"",70,78,62,-8,8,16,8,8,16,70_78_62,62,78,8,-8,-16,8,8,16,70_62_78,8_-8_-16,8_8_16,1,4,4,0,query_middle,78,ref_highdim,1,2,,nan,,across_density_regions,nan,1,1
sub_18,2,dense_left,img/object-9_120-levels_1D/object9F0Level85F1Level40.png,img/object-9_120-levels_1D/object9F0Level61F1Level40.png,img/object-9_120-levels_1D/object9F0Level109F1Level40.png,0,0,1920,p,pre_exposure,16,41762,2,,"",86,62,110,24,-24,-48,24,24,48,86_62_110,62,110,24,-24,-48,24,24,48,86_62_110,24_-24_-48,24_24_48,2,6,6,0,query_middle,110,ref_highdim,1,2,,nan,,sparse_region,nan,1,1
sub_18,2,dense_left,img/object-9_120-levels_1D/object9F0Level37F1Level40.png,img/object-9_120-levels_1D/object9F0Level29F1Level40.png,img/object-9_120-levels_1D/object9F0Level53F1Level40.png,0,0,1422.60000000894,q,pre_exposure,17,44270,2,TRUE,q,38,30,54,8,-16,-24,8,16,24,38_30_54,30,54,8,-16,-24,8,16,24,38_30_54,8_-16_-24,8_16_24,2,5,10,8,query_middle,30,ref_lowdim,0,1,ref_lowdim,ref_left,1,dense_region,ref_towards_dense,0,0
sub_18,2,dense_left,img/object-9_120-levels_1D/object9F0Level93F1Level40.png,img/object-9_120-levels_1D/object9F0Level69F1Level40.png,img/object-9_120-levels_1D/object9F0Level109F1Level40.png,0,0,1128.10000000894,p,pre_exposure,18,46778,2,TRUE,p,94,70,110,24,-16,-40,24,16,40,94_70_110,70,110,24,-16,-40,24,16,40,94_70_110,24_-16_-40,16_24_40,1,4,10,8,query_middle,110,ref_highdim,1,2,ref_highdim,ref_right,1,sparse_region,ref_towards_sparse,1,1
sub_18,2,dense_left,img/object-9_120-levels_1D/object9F0Level69F1Level40.png,img/object-9_120-levels_1D/object9F0Level93F1Level40.png,img/object-9_120-levels_1D/object9F0Level61F1Level40.png,0,0,1595,p,pre_exposure,19,49285,2,TRUE,p,70,94,62,-24,8,32,24,8,32,70_94_62,62,94,8,-24,-32,8,24,32,70_62_94,8_-24_-32,8_24_32,2,6,11,16,query_middle,62,ref_lowdim,0,1,ref_lowdim,ref_right,1,across_density_regions,ref_towards_dense,0,0
sub_18,2,dense_left,img/object-9_120-levels_1D/object9F0Level93F1Level40.png,img/object-9_120-levels_1D/object9F0Level109F1Level40.png,img/object-9_120-levels_1D/object9F0Level69F1Level40.png,0,0,1499.89999999106,q,pre_exposure,20,51793,2,TRUE,q,94,110,70,-16,24,40,16,24,40,94_110_70,70,110,24,-16,-40,24,16,40,94_70_110,24_-16_-40,16_24_40,2,5,11,8,query_middle,110,ref_highdim,1,2,ref_highdim,ref_left,1,sparse_region,ref_towards_sparse,1,1
sub_18,2,dense_left,img/object-9_120-levels_1D/object9F0Level69F1Level40.png,img/object-9_120-levels_1D/object9F0Level61F1Level40.png,img/object-9_120-levels_1D/object9F0Level77F1Level40.png,0,0,979.59999999404,p,pre_exposure,21,54301,2,,"",70,62,78,8,-8,-16,8,8,16,70_62_78,62,78,8,-8,-16,8,8,16,70_62_78,8_-8_-16,8_8_16,2,5,5,0,query_middle,78,ref_highdim,1,2,,nan,,across_density_regions,nan,1,1
sub_18,2,dense_left,img/object-9_120-levels_1D/object9F0Level37F1Level40.png,img/object-9_120-levels_1D/object9F0Level45F1Level40.png,img/object-9_120-levels_1D/object9F0Level29F1Level40.png,0,0,1797.80000001192,p,pre_exposure,22,56809,2,,"",38,46,30,-8,8,16,8,8,16,38_46_30,30,46,8,-8,-16,8,8,16,38_30_46,8_-8_-16,8_8_16,2,6,6,0,query_middle,30,ref_lowdim,0,1,,nan,,dense_region,nan,0,0
sub_18,2,dense_left,img/object-9_120-levels_1D/object9F0Level53F1Level40.png,img/object-9_120-levels_1D/object9F0Level29F1Level40.png,img/object-9_120-levels_1D/object9F0Level61F1Level40.png,0,0,1339.59999999404,p,pre_exposure,23,59316,2,TRUE,p,54,30,62,24,-8,-32,24,8,32,54_30_62,30,62,24,-8,-32,24,8,32,54_30_62,24_-8_-32,8_24_32,2,6,12,16,query_middle,62,ref_highdim,1,2,ref_highdim,ref_right,1,dense_region,ref_towards_sparse,1,1
sub_18,2,dense_left,img/object-9_120-levels_1D/object9F0Level69F1Level40.png,img/object-9_120-levels_1D/object9F0Level45F1Level40.png,img/object-9_120-levels_1D/object9F0Level85F1Level40.png,0,0,1495,p,pre_exposure,24,61818,2,TRUE,p,70,46,86,24,-16,-40,24,16,40,70_46_86,46,86,24,-16,-40,24,16,40,70_46_86,24_-16_-40,16_24_40,2,6,12,8,query_middle,86,ref_highdim,1,2,ref_highdim,ref_right,1,across_density_regions,ref_towards_sparse,1,1
sub_18,2,dense_left,img/object-9_120-levels_1D/object9F0Level45F1Level40.png,img/object-9_120-levels_1D/object9F0Level53F1Level40.png,img/object-9_120-levels_1D/object9F0Level29F1Level40.png,0,0,992.300000011921,q,pre_exposure,25,64326,2,TRUE,q,46,54,30,-8,16,24,8,16,24,46_54_30,30,54,16,-8,-24,16,8,24,46_30_54,16_-8_-24,8_16_24,2,6,11,8,query_middle,54,ref_highdim,1,2,ref_highdim,ref_left,1,dense_region,ref_towards_sparse,1,1
sub_18,2,dense_left,img/object-9_120-levels_1D/object9F0Level69F1Level40.png,img/object-9_120-levels_1D/object9F0Level85F1Level40.png,img/object-9_120-levels_1D/object9F0Level53F1Level40.png,0,0,1372.60000000894,p,pre_exposure,26,66830,2,,"",70,86,54,-16,16,32,16,16,32,70_86_54,54,86,16,-16,-32,16,16,32,70_54_86,16_-16_-32,16_16_32,2,6,6,0,query_middle,54,ref_lowdim,0,1,,nan,,across_density_regions,nan,0,0
sub_18,2,dense_left,img/object-9_120-levels_1D/object9F0Level93F1Level40.png,img/object-9_120-levels_1D/object9F0Level109F1Level40.png,img/object-9_120-levels_1D/object9F0Level85F1Level40.png,0,0,1093.69999998808,q,pre_exposure,27,69336,2,FALSE,p,94,110,86,-16,8,24,16,8,24,94_110_86,86,110,8,-16,-24,8,16,24,94_86_110,8_-16_-24,8_16_24,2,6,12,8,query_middle,110,ref_highdim,1,2,ref_lowdim,ref_right,0,sparse_region,ref_towards_dense,1,1
sub_18,2,dense_left,img/object-9_120-levels_1D/object9F0Level69F1Level40.png,img/object-9_120-levels_1D/object9F0Level53F1Level40.png,img/object-9_120-levels_1D/object9F0Level93F1Level40.png,0,0,3871.70000000298,q,post_exposure,1,5559,1,TRUE,q,70,54,94,16,-24,-40,16,24,40,70_54_94,54,94,16,-24,-40,16,24,40,70_54_94,16_-24_-40,16_24_40,1,1,1,8,query_middle,54,ref_lowdim,0,1,ref_lowdim,ref_left,1,across_density_regions,ref_towards_dense,0,0
sub_18,2,dense_left,img/object-9_120-levels_1D/object9F0Level53F1Level40.png,img/object-9_120-levels_1D/object9F0Level77F1Level40.png,img/object-9_120-levels_1D/object9F0Level29F1Level40.png,0,0,1410.20000000298,p,post_exposure,2,8063,1,,"",54,78,30,-24,24,48,24,24,48,54_78_30,30,78,24,-24,-48,24,24,48,54_30_78,24_-24_-48,24_24_48,1,1,1,0,query_middle,30,ref_lowdim,0,1,,nan,,dense_region,nan,0,0
sub_18,2,dense_left,img/object-9_120-levels_1D/object9F0Level37F1Level40.png,img/object-9_120-levels_1D/object9F0Level61F1Level40.png,img/object-9_120-levels_1D/object9F0Level29F1Level40.png,0,0,920,p,post_exposure,3,10569,1,TRUE,p,38,62,30,-24,8,32,24,8,32,38_62_30,30,62,8,-24,-32,8,24,32,38_30_62,8_-24_-32,8_24_32,1,1,1,16,query_middle,30,ref_lowdim,0,1,ref_lowdim,ref_right,1,dense_region,ref_towards_dense,0,0
sub_18,2,dense_left,img/object-9_120-levels_1D/object9F0Level69F1Level40.png,img/object-9_120-levels_1D/object9F0Level85F1Level40.png,img/object-9_120-levels_1D/object9F0Level53F1Level40.png,0,0,2200.79999999702,p,post_exposure,4,13276,1,,"",70,86,54,-16,16,32,16,16,32,70_86_54,54,86,16,-16,-32,16,16,32,70_54_86,16_-16_-32,16_16_32,1,1,1,0,query_middle,54,ref_lowdim,0,1,,nan,,across_density_regions,nan,0,0
sub_18,2,dense_left,img/object-9_120-levels_1D/object9F0Level53F1Level40.png,img/object-9_120-levels_1D/object9F0Level29F1Level40.png,img/object-9_120-levels_1D/object9F0Level69F1Level40.png,0,0,1956.29999999702,q,post_exposure,5,15783,1,FALSE,p,54,30,70,24,-16,-40,24,16,40,54_30_70,30,70,24,-16,-40,24,16,40,54_30_70,24_-16_-40,16_24_40,1,1,2,8,query_middle,30,ref_lowdim,0,1,ref_highdim,ref_right,0,dense_region,ref_towards_sparse,0,0
sub_18,2,dense_left,img/object-9_120-levels_1D/object9F0Level69F1Level40.png,img/object-9_120-levels_1D/object9F0Level93F1Level40.png,img/object-9_120-levels_1D/object9F0Level53F1Level40.png,0,0,1674.29999999702,p,post_exposure,6,18291,1,TRUE,p,70,94,54,-24,16,40,24,16,40,70_94_54,54,94,16,-24,-40,16,24,40,70_54_94,16_-24_-40,16_24_40,2,2,3,8,query_middle,54,ref_lowdim,0,1,ref_lowdim,ref_right,1,across_density_regions,ref_towards_dense,0,0
sub_18,2,dense_left,img/object-9_120-levels_1D/object9F0Level101F1Level40.png,img/object-9_120-levels_1D/object9F0Level77F1Level40.png,img/object-9_120-levels_1D/object9F0Level109F1Level40.png,0,0,854.100000008941,p,post_exposure,7,20795,1,TRUE,p,102,78,110,24,-8,-32,24,8,32,102_78_110,78,110,24,-8,-32,24,8,32,102_78_110,24_-8_-32,8_24_32,1,1,2,16,query_middle,110,ref_highdim,1,2,ref_highdim,ref_right,1,sparse_region,ref_towards_sparse,1,1
sub_18,2,dense_left,img/object-9_120-levels_1D/object9F0Level85F1Level40.png,img/object-9_120-levels_1D/object9F0Level109F1Level40.png,img/object-9_120-levels_1D/object9F0Level69F1Level40.png,0,0,807.70000000298,q,post_exposure,8,23306,1,FALSE,p,86,110,70,-24,16,40,24,16,40,86_110_70,70,110,16,-24,-40,16,24,40,86_70_110,16_-24_-40,16_24_40,1,3,4,8,query_middle,110,ref_highdim,1,2,ref_lowdim,ref_right,0,sparse_region,ref_towards_dense,1,1
sub_18,2,dense_left,img/object-9_120-levels_1D/object9F0Level53F1Level40.png,img/object-9_120-levels_1D/object9F0Level29F1Level40.png,img/object-9_120-levels_1D/object9F0Level61F1Level40.png,0,0,1064.20000000298,q,post_exposure,9,25814,1,FALSE,p,54,30,62,24,-8,-32,24,8,32,54_30_62,30,62,24,-8,-32,24,8,32,54_30_62,24_-8_-32,8_24_32,1,2,3,16,query_middle,30,ref_lowdim,0,1,ref_highdim,ref_right,0,dense_region,ref_towards_sparse,0,0
sub_18,2,dense_left,img/object-9_120-levels_1D/object9F0Level85F1Level40.png,img/object-9_120-levels_1D/object9F0Level109F1Level40.png,img/object-9_120-levels_1D/object9F0Level77F1Level40.png,0,0,755.900000005961,q,post_exposure,10,28322,1,FALSE,p,86,110,78,-24,8,32,24,8,32,86_110_78,78,110,8,-24,-32,8,24,32,86_78_110,8_-24_-32,8_24_32,1,2,4,16,query_middle,110,ref_highdim,1,2,ref_lowdim,ref_right,0,sparse_region,ref_towards_dense,1,1
sub_18,2,dense_left,img/object-9_120-levels_1D/object9F0Level69F1Level40.png,img/object-9_120-levels_1D/object9F0Level53F1Level40.png,img/object-9_120-levels_1D/object9F0Level77F1Level40.png,0,0,1523.5,p,post_exposure,11,30830,1,TRUE,p,70,54,78,16,-8,-24,16,8,24,70_54_78,54,78,16,-8,-24,16,8,24,70_54_78,16_-8_-24,8_16_24,1,1,1,8,query_middle,78,ref_highdim,1,2,ref_highdim,ref_right,1,across_density_regions,ref_towards_sparse,1,1
sub_18,2,dense_left,img/object-9_120-levels_1D/object9F0Level53F1Level40.png,img/object-9_120-levels_1D/object9F0Level29F1Level40.png,img/object-9_120-levels_1D/object9F0Level77F1Level40.png,0,0,1453,q,post_exposure,12,33338,1,,"",54,30,78,24,-24,-48,24,24,48,54_30_78,30,78,24,-24,-48,24,24,48,54_30_78,24_-24_-48,24_24_48,2,2,2,0,query_middle,30,ref_lowdim,0,1,,nan,,dense_region,nan,0,0
sub_18,2,dense_left,img/object-9_120-levels_1D/object9F0Level93F1Level40.png,img/object-9_120-levels_1D/object9F0Level109F1Level40.png,img/object-9_120-levels_1D/object9F0Level77F1Level40.png,0,0,1094.5,q,post_exposure,13,35846,1,,"",94,110,78,-16,16,32,16,16,32,94_110_78,78,110,16,-16,-32,16,16,32,94_78_110,16_-16_-32,16_16_32,1,2,2,0,query_middle,110,ref_highdim,1,2,,nan,,sparse_region,nan,1,1
sub_18,2,dense_left,img/object-9_120-levels_1D/object9F0Level69F1Level40.png,img/object-9_120-levels_1D/object9F0Level93F1Level40.png,img/object-9_120-levels_1D/object9F0Level45F1Level40.png,0,0,1550.10000000894,q,post_exposure,14,38353,1,,"",70,94,46,-24,24,48,24,24,48,70_94_46,46,94,24,-24,-48,24,24,48,70_46_94,24_-24_-48,24_24_48,1,3,3,0,query_middle,94,ref_highdim,1,2,,nan,,across_density_regions,nan,1,1
sub_18,2,dense_left,img/object-9_120-levels_1D/object9F0Level93F1Level40.png,img/object-9_120-levels_1D/object9F0Level85F1Level40.png,img/object-9_120-levels_1D/object9F0Level109F1Level40.png,0,0,1092.10000000894,p,post_exposure,15,40858,1,FALSE,q,94,86,110,8,-16,-24,8,16,24,94_86_110,86,110,8,-16,-24,8,16,24,94_86_110,8_-16_-24,8_16_24,1,1,2,8,query_middle,110,ref_highdim,1,2,ref_lowdim,ref_left,0,sparse_region,ref_towards_dense,1,1
sub_18,2,dense_left,img/object-9_120-levels_1D/object9F0Level69F1Level40.png,img/object-9_120-levels_1D/object9F0Level45F1Level40.png,img/object-9_120-levels_1D/object9F0Level93F1Level40.png,0,0,1737.89999999106,p,post_exposure,16,43363,1,,"",70,46,94,24,-24,-48,24,24,48,70_46_94,46,94,24,-24,-48,24,24,48,70_46_94,24_-24_-48,24_24_48,2,4,4,0,query_middle,94,ref_highdim,1,2,,nan,,across_density_regions,nan,1,1
sub_18,2,dense_left,img/object-9_120-levels_1D/object9F0Level101F1Level40.png,img/object-9_120-levels_1D/object9F0Level109F1Level40.png,img/object-9_120-levels_1D/object9F0Level85F1Level40.png,0,0,933.09999999404,p,post_exposure,17,45871,1,FALSE,q,102,110,86,-8,16,24,8,16,24,102_110_86,86,110,16,-8,-24,16,8,24,102_86_110,16_-8_-24,8_16_24,1,2,3,8,query_middle,86,ref_lowdim,0,1,ref_highdim,ref_left,0,sparse_region,ref_towards_sparse,0,0
sub_18,2,dense_left,img/object-9_120-levels_1D/object9F0Level37F1Level40.png,img/object-9_120-levels_1D/object9F0Level45F1Level40.png,img/object-9_120-levels_1D/object9F0Level29F1Level40.png,0,0,1637.70000000298,p,post_exposure,18,48378,1,,"",38,46,30,-8,8,16,8,8,16,38_46_30,30,46,8,-8,-16,8,8,16,38_30_46,8_-8_-16,8_8_16,1,1,1,0,query_middle,30,ref_lowdim,0,1,,nan,,dense_region,nan,0,0
sub_18,2,dense_left,img/object-9_120-levels_1D/object9F0Level85F1Level40.png,img/object-9_120-levels_1D/object9F0Level77F1Level40.png,img/object-9_120-levels_1D/object9F0Level109F1Level40.png,0,0,1250.70000000298,q,post_exposure,19,50892,1,TRUE,q,86,78,110,8,-24,-32,8,24,32,86_78_110,78,110,8,-24,-32,8,24,32,86_78_110,8_-24_-32,8_24_32,2,3,5,16,query_middle,78,ref_lowdim,0,1,ref_lowdim,ref_left,1,sparse_region,ref_towards_dense,0,0
sub_18,2,dense_left,img/object-9_120-levels_1D/object9F0Level45F1Level40.png,img/object-9_120-levels_1D/object9F0Level29F1Level40.png,img/object-9_120-levels_1D/object9F0Level53F1Level40.png,0,0,1066.5,p,post_exposure,20,53400,1,TRUE,p,46,30,54,16,-8,-24,16,8,24,46_30_54,30,54,16,-8,-24,16,8,24,46_30_54,16_-8_-24,8_16_24,1,3,4,8,query_middle,54,ref_highdim,1,2,ref_highdim,ref_right,1,dense_region,ref_towards_sparse,1,1
sub_18,2,dense_left,img/object-9_120-levels_1D/object9F0Level69F1Level40.png,img/object-9_120-levels_1D/object9F0Level61F1Level40.png,img/object-9_120-levels_1D/object9F0Level93F1Level40.png,0,0,1471.80000001192,q,post_exposure,21,55907,1,TRUE,q,70,62,94,8,-24,-32,8,24,32,70_62_94,62,94,8,-24,-32,8,24,32,70_62_94,8_-24_-32,8_24_32,1,4,6,16,query_middle,62,ref_lowdim,0,1,ref_lowdim,ref_left,1,across_density_regions,ref_towards_dense,0,0
sub_18,2,dense_left,img/object-9_120-levels_1D/object9F0Level101F1Level40.png,img/object-9_120-levels_1D/object9F0Level85F1Level40.png,img/object-9_120-levels_1D/object9F0Level109F1Level40.png,0,0,1414.20000000298,p,post_exposure,22,58415,1,TRUE,p,102,86,110,16,-8,-24,16,8,24,102_86_110,86,110,16,-8,-24,16,8,24,102_86_110,16_-8_-24,8_16_24,2,4,5,8,query_middle,110,ref_highdim,1,2,ref_highdim,ref_right,1,sparse_region,ref_towards_sparse,1,1
sub_18,2,dense_left,img/object-9_120-levels_1D/object9F0Level69F1Level40.png,img/object-9_120-levels_1D/object9F0Level53F1Level40.png,img/object-9_120-levels_1D/object9F0Level85F1Level40.png,0,0,1756.40000000596,p,post_exposure,23,60923,1,,"",70,54,86,16,-16,-32,16,16,32,70_54_86,54,86,16,-16,-32,16,16,32,70_54_86,16_-16_-32,16_16_32,2,3,3,0,query_middle,86,ref_highdim,1,2,,nan,,across_density_regions,nan,1,1
sub_18,2,dense_left,img/object-9_120-levels_1D/object9F0Level101F1Level40.png,img/object-9_120-levels_1D/object9F0Level93F1Level40.png,img/object-9_120-levels_1D/object9F0Level109F1Level40.png,0,0,2236.09999999404,p,post_exposure,24,63663,1,,"",102,94,110,8,-8,-16,8,8,16,102_94_110,94,110,8,-8,-16,8,8,16,102_94_110,8_-8_-16,8_8_16,1,2,2,0,query_middle,110,ref_highdim,1,2,,nan,,sparse_region,nan,1,1
sub_18,2,dense_left,img/object-9_120-levels_1D/object9F0Level69F1Level40.png,img/object-9_120-levels_1D/object9F0Level61F1Level40.png,img/object-9_120-levels_1D/object9F0Level85F1Level40.png,0,0,1559.59999999404,p,post_exposure,25,66166,1,FALSE,q,70,62,86,8,-16,-24,8,16,24,70_62_86,62,86,8,-16,-24,8,16,24,70_62_86,8_-16_-24,8_16_24,1,2,6,8,query_middle,86,ref_highdim,1,2,ref_lowdim,ref_left,0,across_density_regions,ref_towards_dense,1,1
sub_18,2,dense_left,img/object-9_120-levels_1D/object9F0Level93F1Level40.png,img/object-9_120-levels_1D/object9F0Level77F1Level40.png,img/object-9_120-levels_1D/object9F0Level109F1Level40.png,0,0,981.100000008941,p,post_exposure,26,68672,1,,"",94,78,110,16,-16,-32,16,16,32,94_78_110,78,110,16,-16,-32,16,16,32,94_78_110,16_-16_-32,16_16_32,2,4,4,0,query_middle,110,ref_highdim,1,2,,nan,,sparse_region,nan,1,1
sub_18,2,dense_left,img/object-9_120-levels_1D/object9F0Level53F1Level40.png,img/object-9_120-levels_1D/object9F0Level61F1Level40.png,img/object-9_120-levels_1D/object9F0Level29F1Level40.png,0,0,1549.70000000298,q,post_exposure,27,71177,1,TRUE,q,54,62,30,-8,24,32,8,24,32,54_62_30,30,62,24,-8,-32,24,8,32,54_30_62,24_-8_-32,8_24_32,2,3,7,16,query_middle,62,ref_highdim,1,2,ref_highdim,ref_left,1,dense_region,ref_towards_sparse,1,1
sub_18,2,dense_left,img/object-9_120-levels_1D/object9F0Level101F1Level40.png,img/object-9_120-levels_1D/object9F0Level109F1Level40.png,img/object-9_120-levels_1D/object9F0Level77F1Level40.png,0,0,947.90000000596,q,post_exposure,1,3685,2,TRUE,q,102,110,78,-8,24,32,8,24,32,102_110_78,78,110,24,-8,-32,24,8,32,102_78_110,24_-8_-32,8_24_32,2,4,8,16,query_middle,110,ref_highdim,1,2,ref_highdim,ref_left,1,sparse_region,ref_towards_sparse,1,1
sub_18,2,dense_left,img/object-9_120-levels_1D/object9F0Level69F1Level40.png,img/object-9_120-levels_1D/object9F0Level61F1Level40.png,img/object-9_120-levels_1D/object9F0Level77F1Level40.png,0,0,1339.90000000596,p,post_exposure,2,6193,2,,"",70,62,78,8,-8,-16,8,8,16,70_62_78,62,78,8,-8,-16,8,8,16,70_62_78,8_-8_-16,8_8_16,1,3,3,0,query_middle,78,ref_highdim,1,2,,nan,,across_density_regions,nan,1,1
sub_18,2,dense_left,img/object-9_120-levels_1D/object9F0Level85F1Level40.png,img/object-9_120-levels_1D/object9F0Level69F1Level40.png,img/object-9_120-levels_1D/object9F0Level109F1Level40.png,0,0,1732.29999999702,q,post_exposure,3,8701,2,TRUE,q,86,70,110,16,-24,-40,16,24,40,86_70_110,70,110,16,-24,-40,16,24,40,86_70_110,16_-24_-40,16_24_40,2,4,5,8,query_middle,70,ref_lowdim,0,1,ref_lowdim,ref_left,1,sparse_region,ref_towards_dense,0,0
sub_18,2,dense_left,img/object-9_120-levels_1D/object9F0Level93F1Level40.png,img/object-9_120-levels_1D/object9F0Level69F1Level40.png,img/object-9_120-levels_1D/object9F0Level109F1Level40.png,0,0,687.29999999702,p,post_exposure,4,11208,2,TRUE,p,94,70,110,24,-16,-40,24,16,40,94_70_110,70,110,24,-16,-40,24,16,40,94_70_110,24_-16_-40,16_24_40,1,2,6,8,query_middle,110,ref_highdim,1,2,ref_highdim,ref_right,1,sparse_region,ref_towards_sparse,1,1
sub_18,2,dense_left,img/object-9_120-levels_1D/object9F0Level69F1Level40.png,img/object-9_120-levels_1D/object9F0Level93F1Level40.png,img/object-9_120-levels_1D/object9F0Level61F1Level40.png,0,0,979.70000000298,p,post_exposure,5,13710,2,TRUE,p,70,94,62,-24,8,32,24,8,32,70_94_62,62,94,8,-24,-32,8,24,32,70_62_94,8_-24_-32,8_24_32,2,5,9,16,query_middle,62,ref_lowdim,0,1,ref_lowdim,ref_right,1,across_density_regions,ref_towards_dense,0,0
sub_18,2,dense_left,img/object-9_120-levels_1D/object9F0Level93F1Level40.png,img/object-9_120-levels_1D/object9F0Level109F1Level40.png,img/object-9_120-levels_1D/object9F0Level69F1Level40.png,0,0,727.70000000298,q,post_exposure,6,16218,2,TRUE,q,94,110,70,-16,24,40,16,24,40,94_110_70,70,110,24,-16,-40,24,16,40,94_70_110,24_-16_-40,16_24_40,2,3,7,8,query_middle,110,ref_highdim,1,2,ref_highdim,ref_left,1,sparse_region,ref_towards_sparse,1,1
sub_18,2,dense_left,img/object-9_120-levels_1D/object9F0Level69F1Level40.png,img/object-9_120-levels_1D/object9F0Level85F1Level40.png,img/object-9_120-levels_1D/object9F0Level45F1Level40.png,0,0,1445.5,q,post_exposure,7,18726,2,TRUE,q,70,86,46,-16,24,40,16,24,40,70_86_46,46,86,24,-16,-40,24,16,40,70_46_86,24_-16_-40,16_24_40,1,4,8,8,query_middle,86,ref_highdim,1,2,ref_highdim,ref_left,1,across_density_regions,ref_towards_sparse,1,1
sub_18,2,dense_left,img/object-9_120-levels_1D/object9F0Level45F1Level40.png,img/object-9_120-levels_1D/object9F0Level29F1Level40.png,img/object-9_120-levels_1D/object9F0Level69F1Level40.png,0,0,1337.19999998808,q,post_exposure,8,21234,2,TRUE,q,46,30,70,16,-24,-40,16,24,40,46_30_70,30,70,16,-24,-40,16,24,40,46_30_70,16_-24_-40,16_24_40,1,5,9,8,query_middle,30,ref_lowdim,0,1,ref_lowdim,ref_left,1,dense_region,ref_towards_dense,0,0
sub_18,2,dense_left,img/object-9_120-levels_1D/object9F0Level37F1Level40.png,img/object-9_120-levels_1D/object9F0Level29F1Level40.png,img/object-9_120-levels_1D/object9F0Level45F1Level40.png,0,0,1492.70000000298,q,post_exposure,9,23739,2,,"",38,30,46,8,-8,-16,8,8,16,38_30_46,30,46,8,-8,-16,8,8,16,38_30_46,8_-8_-16,8_8_16,2,4,4,0,query_middle,30,ref_lowdim,0,1,,nan,,dense_region,nan,0,0
sub_18,2,dense_left,img/object-9_120-levels_1D/object9F0Level69F1Level40.png,img/object-9_120-levels_1D/object9F0Level77F1Level40.png,img/object-9_120-levels_1D/object9F0Level45F1Level40.png,0,0,1261.89999999106,q,post_exposure,10,26249,2,TRUE,q,70,78,46,-8,24,32,8,24,32,70_78_46,46,78,24,-8,-32,24,8,32,70_46_78,24_-8_-32,8_24_32,1,5,10,16,query_middle,78,ref_highdim,1,2,ref_highdim,ref_left,1,across_density_regions,ref_towards_sparse,1,1
sub_18,2,dense_left,img/object-9_120-levels_1D/object9F0Level85F1Level40.png,img/object-9_120-levels_1D/object9F0Level61F1Level40.png,img/object-9_120-levels_1D/object9F0Level109F1Level40.png,0,0,1277.70000000298,p,post_exposure,11,28756,2,,"",86,62,110,24,-24,-48,24,24,48,86_62_110,62,110,24,-24,-48,24,24,48,86_62_110,24_-24_-48,24_24_48,1,5,5,0,query_middle,110,ref_highdim,1,2,,nan,,sparse_region,nan,1,1
sub_18,2,dense_left,img/object-9_120-levels_1D/object9F0Level37F1Level40.png,img/object-9_120-levels_1D/object9F0Level29F1Level40.png,img/object-9_120-levels_1D/object9F0Level53F1Level40.png,0,0,1607.70000000298,q,post_exposure,12,31265,2,TRUE,q,38,30,54,8,-16,-24,8,16,24,38_30_54,30,54,8,-16,-24,8,16,24,38_30_54,8_-16_-24,8_16_24,1,3,7,8,query_middle,30,ref_lowdim,0,1,ref_lowdim,ref_left,1,dense_region,ref_towards_dense,0,0
sub_18,2,dense_left,img/object-9_120-levels_1D/object9F0Level45F1Level40.png,img/object-9_120-levels_1D/object9F0Level53F1Level40.png,img/object-9_120-levels_1D/object9F0Level29F1Level40.png,0,0,1999.30000001192,p,post_exposure,13,33767,2,FALSE,q,46,54,30,-8,16,24,8,16,24,46_54_30,30,54,16,-8,-24,16,8,24,46_30_54,16_-8_-24,8_16_24,2,5,8,8,query_middle,30,ref_lowdim,0,1,ref_highdim,ref_left,0,dense_region,ref_towards_sparse,0,0
sub_18,2,dense_left,img/object-9_120-levels_1D/object9F0Level69F1Level40.png,img/object-9_120-levels_1D/object9F0Level77F1Level40.png,img/object-9_120-levels_1D/object9F0Level61F1Level40.png,0,0,1322.20000000298,p,post_exposure,14,36275,2,,"",70,78,62,-8,8,16,8,8,16,70_78_62,62,78,8,-8,-16,8,8,16,70_62_78,8_-8_-16,8_8_16,2,5,5,0,query_middle,62,ref_lowdim,0,1,,nan,,across_density_regions,nan,0,0
sub_18,2,dense_left,img/object-9_120-levels_1D/object9F0Level101F1Level40.png,img/object-9_120-levels_1D/object9F0Level109F1Level40.png,img/object-9_120-levels_1D/object9F0Level93F1Level40.png,0,0,1072.70000000298,q,post_exposure,15,38788,2,,"",102,110,94,-8,8,16,8,8,16,102_110_94,94,110,8,-8,-16,8,8,16,102_94_110,8_-8_-16,8_8_16,2,6,6,0,query_middle,110,ref_highdim,1,2,,nan,,sparse_region,nan,1,1
sub_18,2,dense_left,img/object-9_120-levels_1D/object9F0Level45F1Level40.png,img/object-9_120-levels_1D/object9F0Level29F1Level40.png,img/object-9_120-levels_1D/object9F0Level61F1Level40.png,0,0,1338.59999999404,q,post_exposure,16,41296,2,,"",46,30,62,16,-16,-32,16,16,32,46_30_62,30,62,16,-16,-32,16,16,32,46_30_62,16_-16_-32,16_16_32,1,5,5,0,query_middle,30,ref_lowdim,0,1,,nan,,dense_region,nan,0,0
sub_18,2,dense_left,img/object-9_120-levels_1D/object9F0Level69F1Level40.png,img/object-9_120-levels_1D/object9F0Level45F1Level40.png,img/object-9_120-levels_1D/object9F0Level77F1Level40.png,0,0,1155.69999998808,p,post_exposure,17,43804,2,TRUE,p,70,46,78,24,-8,-32,24,8,32,70_46_78,46,78,24,-8,-32,24,8,32,70_46_78,24_-8_-32,8_24_32,2,6,11,16,query_middle,78,ref_highdim,1,2,ref_highdim,ref_right,1,across_density_regions,ref_towards_sparse,1,1
sub_18,2,dense_left,img/object-9_120-levels_1D/object9F0Level53F1Level40.png,img/object-9_120-levels_1D/object9F0Level69F1Level40.png,img/object-9_120-levels_1D/object9F0Level29F1Level40.png,0,0,1348.40000000596,p,post_exposure,18,46312,2,FALSE,q,54,70,30,-16,24,40,16,24,40,54_70_30,30,70,24,-16,-40,24,16,40,54_30_70,24_-16_-40,16_24_40,2,5,10,8,query_middle,30,ref_lowdim,0,1,ref_highdim,ref_left,0,dense_region,ref_towards_sparse,0,0
sub_18,2,dense_left,img/object-9_120-levels_1D/object9F0Level45F1Level40.png,img/object-9_120-levels_1D/object9F0Level69F1Level40.png,img/object-9_120-levels_1D/object9F0Level29F1Level40.png,0,0,1390.40000000596,p,post_exposure,19,48819,2,TRUE,p,46,70,30,-24,16,40,24,16,40,46_70_30,30,70,16,-24,-40,16,24,40,46_30_70,16_-24_-40,16_24_40,2,6,11,8,query_middle,30,ref_lowdim,0,1,ref_lowdim,ref_right,1,dense_region,ref_towards_dense,0,0
sub_18,2,dense_left,img/object-9_120-levels_1D/object9F0Level69F1Level40.png,img/object-9_120-levels_1D/object9F0Level85F1Level40.png,img/object-9_120-levels_1D/object9F0Level61F1Level40.png,0,0,1470.5,p,post_exposure,20,51327,2,TRUE,p,70,86,62,-16,8,24,16,8,24,70_86_62,62,86,8,-16,-24,8,16,24,70_62_86,8_-16_-24,8_16_24,2,4,9,8,query_middle,62,ref_lowdim,0,1,ref_lowdim,ref_right,1,across_density_regions,ref_towards_dense,0,0
sub_18,2,dense_left,img/object-9_120-levels_1D/object9F0Level37F1Level40.png,img/object-9_120-levels_1D/object9F0Level29F1Level40.png,img/object-9_120-levels_1D/object9F0Level61F1Level40.png,0,0,1950.29999999702,q,post_exposure,21,53835,2,TRUE,q,38,30,62,8,-24,-32,8,24,32,38_30_62,30,62,8,-24,-32,8,24,32,38_30_62,8_-24_-32,8_24_32,2,6,12,16,query_middle,30,ref_lowdim,0,1,ref_lowdim,ref_left,1,dense_region,ref_towards_dense,0,0
sub_18,2,dense_left,img/object-9_120-levels_1D/object9F0Level93F1Level40.png,img/object-9_120-levels_1D/object9F0Level109F1Level40.png,img/object-9_120-levels_1D/object9F0Level85F1Level40.png,0,0,1092.90000000596,q,post_exposure,22,56342,2,FALSE,p,94,110,86,-16,8,24,16,8,24,94_110_86,86,110,8,-16,-24,8,16,24,94_86_110,8_-16_-24,8_16_24,2,5,10,8,query_middle,110,ref_highdim,1,2,ref_lowdim,ref_right,0,sparse_region,ref_towards_dense,1,1
sub_18,2,dense_left,img/object-9_120-levels_1D/object9F0Level69F1Level40.png,img/object-9_120-levels_1D/object9F0Level77F1Level40.png,img/object-9_120-levels_1D/object9F0Level53F1Level40.png,0,0,1397.39999999106,q,post_exposure,23,58850,2,TRUE,q,70,78,54,-8,16,24,8,16,24,70_78_54,54,78,16,-8,-24,16,8,24,70_54_78,16_-8_-24,8_16_24,2,6,11,8,query_middle,78,ref_highdim,1,2,ref_highdim,ref_left,1,across_density_regions,ref_towards_sparse,1,1
sub_18,2,dense_left,img/object-9_120-levels_1D/object9F0Level37F1Level40.png,img/object-9_120-levels_1D/object9F0Level53F1Level40.png,img/object-9_120-levels_1D/object9F0Level29F1Level40.png,0,0,1527.60000000894,p,post_exposure,24,61358,2,TRUE,p,38,54,30,-16,8,24,16,8,24,38_54_30,30,54,8,-16,-24,8,16,24,38_30_54,8_-16_-24,8_16_24,2,6,12,8,query_middle,30,ref_lowdim,0,1,ref_lowdim,ref_right,1,dense_region,ref_towards_dense,0,0
sub_18,2,dense_left,img/object-9_120-levels_1D/object9F0Level45F1Level40.png,img/object-9_120-levels_1D/object9F0Level61F1Level40.png,img/object-9_120-levels_1D/object9F0Level29F1Level40.png,0,0,1282.20000000298,p,post_exposure,25,63866,2,,"",46,62,30,-16,16,32,16,16,32,46_62_30,30,62,16,-16,-32,16,16,32,46_30_62,16_-16_-32,16_16_32,2,6,6,0,query_middle,30,ref_lowdim,0,1,,nan,,dense_region,nan,0,0
sub_18,2,dense_left,img/object-9_120-levels_1D/object9F0Level69F1Level40.png,img/object-9_120-levels_1D/object9F0Level45F1Level40.png,img/object-9_120-levels_1D/object9F0Level85F1Level40.png,0,0,1487.29999999702,p,post_exposure,26,66368,2,TRUE,p,70,46,86,24,-16,-40,24,16,40,70_46_86,46,86,24,-16,-40,24,16,40,70_46_86,24_-16_-40,16_24_40,2,6,12,8,query_middle,86,ref_highdim,1,2,ref_highdim,ref_right,1,across_density_regions,ref_towards_sparse,1,1
sub_18,2,dense_left,img/object-9_120-levels_1D/object9F0Level85F1Level40.png,img/object-9_120-levels_1D/object9F0Level109F1Level40.png,img/object-9_120-levels_1D/object9F0Level61F1Level40.png,0,0,792.5,q,post_exposure,27,68881,2,,"",86,110,62,-24,24,48,24,24,48,86_110_62,62,110,24,-24,-48,24,24,48,86_62_110,24_-24_-48,24_24_48,2,6,6,0,query_middle,110,ref_highdim,1,2,,nan,,sparse_region,nan,1,1
sub_19,2,dense_right,img/object-9_120-levels_1D/object9F0Level93F1Level40.png,img/object-9_120-levels_1D/object9F0Level85F1Level40.png,img/object-9_120-levels_1D/object9F0Level109F1Level40.png,0,0,1060.5,p,pre_exposure,1,2769,1,FALSE,q,94,86,110,8,-16,-24,8,16,24,94_86_110,86,110,8,-16,-24,8,16,24,94_86_110,8_-16_-24,8_16_24,1,1,1,8,query_middle,110,ref_highdim,0,2,ref_lowdim,ref_left,0,dense_region,ref_towards_sparse,0,1
sub_19,2,dense_right,img/object-9_120-levels_1D/object9F0Level69F1Level40.png,img/object-9_120-levels_1D/object9F0Level77F1Level40.png,img/object-9_120-levels_1D/object9F0Level45F1Level40.png,0,0,1066.79999999702,q,pre_exposure,2,5277,1,TRUE,q,70,78,46,-8,24,32,8,24,32,70_78_46,46,78,24,-8,-32,24,8,32,70_46_78,24_-8_-32,8_24_32,1,1,1,16,query_middle,78,ref_highdim,0,2,ref_highdim,ref_left,1,across_density_regions,ref_towards_dense,0,1
sub_19,2,dense_right,img/object-9_120-levels_1D/object9F0Level101F1Level40.png,img/object-9_120-levels_1D/object9F0Level85F1Level40.png,img/object-9_120-levels_1D/object9F0Level109F1Level40.png,0,0,1191.39999999851,p,pre_exposure,3,7780,1,TRUE,p,102,86,110,16,-8,-24,16,8,24,102_86_110,86,110,16,-8,-24,16,8,24,102_86_110,16_-8_-24,8_16_24,1,1,2,8,query_middle,110,ref_highdim,0,2,ref_highdim,ref_right,1,dense_region,ref_towards_dense,0,1
sub_19,2,dense_right,img/object-9_120-levels_1D/object9F0Level69F1Level40.png,img/object-9_120-levels_1D/object9F0Level53F1Level40.png,img/object-9_120-levels_1D/object9F0Level85F1Level40.png,0,0,2024.60000000149,p,pre_exposure,4,10310,1,,"",70,54,86,16,-16,-32,16,16,32,70_54_86,54,86,16,-16,-32,16,16,32,70_54_86,16_-16_-32,16_16_32,1,1,1,0,query_middle,86,ref_highdim,0,2,,nan,,across_density_regions,nan,0,1
sub_19,2,dense_right,img/object-9_120-levels_1D/object9F0Level93F1Level40.png,img/object-9_120-levels_1D/object9F0Level77F1Level40.png,img/object-9_120-levels_1D/object9F0Level109F1Level40.png,0,0,1022.29999999702,p,pre_exposure,5,12818,1,,"",94,78,110,16,-16,-32,16,16,32,94_78_110,78,110,16,-16,-32,16,16,32,94_78_110,16_-16_-32,16_16_32,1,2,2,0,query_middle,110,ref_highdim,0,2,,nan,,dense_region,nan,0,1
sub_19,2,dense_right,img/object-9_120-levels_1D/object9F0Level101F1Level40.png,img/object-9_120-levels_1D/object9F0Level77F1Level40.png,img/object-9_120-levels_1D/object9F0Level109F1Level40.png,0,0,1146.39999999851,p,pre_exposure,6,15325,1,TRUE,p,102,78,110,24,-8,-32,24,8,32,102_78_110,78,110,24,-8,-32,24,8,32,102_78_110,24_-8_-32,8_24_32,1,2,2,16,query_middle,110,ref_highdim,0,2,ref_highdim,ref_right,1,dense_region,ref_towards_dense,0,1
sub_19,2,dense_right,img/object-9_120-levels_1D/object9F0Level69F1Level40.png,img/object-9_120-levels_1D/object9F0Level85F1Level40.png,img/object-9_120-levels_1D/object9F0Level61F1Level40.png,0,0,1357.80000000447,p,pre_exposure,7,17833,1,TRUE,p,70,86,62,-16,8,24,16,8,24,70_86_62,62,86,8,-16,-24,8,16,24,70_62_86,8_-16_-24,8_16_24,1,2,3,8,query_middle,62,ref_lowdim,1,1,ref_lowdim,ref_right,1,across_density_regions,ref_towards_sparse,1,0
sub_19,2,dense_right,img/object-9_120-levels_1D/object9F0Level37F1Level40.png,img/object-9_120-levels_1D/object9F0Level61F1Level40.png,img/object-9_120-levels_1D/object9F0Level29F1Level40.png,0,0,1363,p,pre_exposure,8,20341,1,TRUE,p,38,62,30,-24,8,32,24,8,32,38_62_30,30,62,8,-24,-32,8,24,32,38_30_62,8_-24_-32,8_24_32,1,1,3,16,query_middle,30,ref_lowdim,1,1,ref_lowdim,ref_right,1,sparse_region,ref_towards_sparse,1,0
sub_19,2,dense_right,img/object-9_120-levels_1D/object9F0Level69F1Level40.png,img/object-9_120-levels_1D/object9F0Level93F1Level40.png,img/object-9_120-levels_1D/object9F0Level45F1Level40.png,0,0,1158.60000000149,p,pre_exposure,9,22849,1,,"",70,94,46,-24,24,48,24,24,48,70_94_46,46,94,24,-24,-48,24,24,48,70_46_94,24_-24_-48,24_24_48,1,1,1,0,query_middle,46,ref_lowdim,1,1,,nan,,across_density_regions,nan,1,0
sub_19,2,dense_right,img/object-9_120-levels_1D/object9F0Level45F1Level40.png,img/object-9_120-levels_1D/object9F0Level61F1Level40.png,img/object-9_120-levels_1D/object9F0Level29F1Level40.png,0,0,2474.5,q,pre_exposure,10,25827,1,,"",46,62,30,-16,16,32,16,16,32,46_62_30,30,62,16,-16,-32,16,16,32,46_30_62,16_-16_-32,16_16_32,1,3,3,0,query_middle,62,ref_highdim,0,2,,nan,,sparse_region,nan,0,1
sub_19,2,dense_right,img/object-9_120-levels_1D/object9F0Level69F1Level40.png,img/object-9_120-levels_1D/object9F0Level61F1Level40.png,img/object-9_120-levels_1D/object9F0Level85F1Level40.png,0,0,1010.70000000298,q,pre_exposure,11,28335,1,TRUE,q,70,62,86,8,-16,-24,8,16,24,70_62_86,62,86,8,-16,-24,8,16,24,70_62_86,8_-16_-24,8_16_24,2,3,4,8,query_middle,62,ref_lowdim,1,1,ref_lowdim,ref_left,1,across_density_regions,ref_towards_sparse,1,0
sub_19,2,dense_right,img/object-9_120-levels_1D/object9F0Level85F1Level40.png,img/object-9_120-levels_1D/object9F0Level69F1Level40.png,img/object-9_120-levels_1D/object9F0Level109F1Level40.png,0,0,942,q,pre_exposure,12,30844,1,TRUE,q,86,70,110,16,-24,-40,16,24,40,86_70_110,70,110,16,-24,-40,16,24,40,86_70_110,16_-24_-40,16_24_40,1,1,1,8,query_middle,70,ref_lowdim,1,1,ref_lowdim,ref_left,1,dense_region,ref_towards_sparse,1,0
sub_19,2,dense_right,img/object-9_120-levels_1D/object9F0Level101F1Level40.png,img/object-9_120-levels_1D/object9F0Level109F1Level40.png,img/object-9_120-levels_1D/object9F0Level93F1Level40.png,0,0,1561,q,pre_exposure,13,33348,1,,"",102,110,94,-8,8,16,8,8,16,102_110_94,94,110,8,-8,-16,8,8,16,102_94_110,8_-8_-16,8_8_16,1,1,1,0,query_middle,110,ref_highdim,0,2,,nan,,dense_region,nan,0,1
sub_19,2,dense_right,img/object-9_120-levels_1D/object9F0Level69F1Level40.png,img/object-9_120-levels_1D/object9F0Level53F1Level40.png,img/object-9_120-levels_1D/object9F0Level93F1Level40.png,0,0,1240.30000000447,q,pre_exposure,14,35856,1,TRUE,q,70,54,94,16,-24,-40,16,24,40,70_54_94,54,94,16,-24,-40,16,24,40,70_54_94,16_-24_-40,16_24_40,1,2,2,8,query_middle,54,ref_lowdim,1,1,ref_lowdim,ref_left,1,across_density_regions,ref_towards_sparse,1,0
sub_19,2,dense_right,img/object-9_120-levels_1D/object9F0Level53F1Level40.png,img/object-9_120-levels_1D/object9F0Level29F1Level40.png,img/object-9_120-levels_1D/object9F0Level69F1Level40.png,0,0,2013.10000000149,q,pre_exposure,15,38373,1,FALSE,p,54,30,70,24,-16,-40,24,16,40,54_30_70,30,70,24,-16,-40,24,16,40,54_30_70,24_-16_-40,16_24_40,1,1,3,8,query_middle,30,ref_lowdim,1,1,ref_highdim,ref_right,0,sparse_region,ref_towards_dense,1,0
sub_19,2,dense_right,img/object-9_120-levels_1D/object9F0Level69F1Level40.png,img/object-9_120-levels_1D/object9F0Level53F1Level40.png,img/object-9_120-levels_1D/object9F0Level77F1Level40.png,0,0,1329.10000000149,p,pre_exposure,16,40887,1,TRUE,p,70,54,78,16,-8,-24,16,8,24,70_54_78,54,78,16,-8,-24,16,8,24,70_54_78,16_-8_-24,8_16_24,1,2,5,8,query_middle,78,ref_highdim,0,2,ref_highdim,ref_right,1,across_density_regions,ref_towards_dense,0,1
