prolific_id,experiment,counterbalancing,rt,stimulus,response,trial_stage,trial_index,time_elapsed,cb_condition,correct_response,session,correct,stim_val,dist_from_prev,dist_abs_from_prev
sub_58,1,dense_left,,img/object-9_120-levels_1D/object9F0Level101F1Level40.png,,exemplar_display,2,7612,dense_left,,1,,102,,
sub_58,1,dense_left,1326.6000000005588,img/object-9_120-levels_1D/object9F0Level53F1Level40.png,p,exemplar_display,4,10134,dense_left,p,1,True,54,-48.0,48.0
sub_58,1,dense_left,725.0999999996275,img/object-9_120-levels_1D/object9F0Level85F1Level40.png,q,exemplar_display,6,12652,dense_left,p,1,False,86,32.0,32.0
sub_58,1,dense_left,1294.7999999998137,img/object-9_120-levels_1D/object9F0Level101F1Level40.png,q,exemplar_display,8,15181,dense_left,p,1,False,102,16.0,16.0
sub_58,1,dense_left,726.0,img/object-9_120-levels_1D/object9F0Level47F1Level40.png,p,exemplar_display,10,17712,dense_left,p,1,True,48,-54.0,54.0
sub_58,1,dense_left,975.1000000005588,img/object-9_120-levels_1D/object9F0Level53F1Level40.png,q,exemplar_display,12,20252,dense_left,p,1,False,54,6.0,6.0
sub_58,1,dense_left,746.2999999998137,img/object-9_120-levels_1D/object9F0Level35F1Level40.png,q,exemplar_display,14,22782,dense_left,p,1,False,36,-18.0,18.0
sub_58,1,dense_left,687.2000000001863,img/object-9_120-levels_1D/object9F0Level67F1Level40.png,p,exemplar_display,16,25312,dense_left,p,1,True,68,32.0,32.0
sub_58,1,dense_left,647.7000000001863,img/object-9_120-levels_1D/object9F0Level67F1Level40.png,p,exemplar_display,18,27832,dense_left,q,1,False,68,0.0,0.0
sub_58,1,dense_left,824.8000000007451,img/object-9_120-levels_1D/object9F0Level29F1Level40.png,p,exemplar_display,20,30346,dense_left,p,1,True,30,-38.0,38.0
sub_58,1,dense_left,1889.5,img/object-9_120-levels_1D/object9F0Level29F1Level40.png,p,exemplar_display,22,32852,dense_left,q,1,False,30,0.0,0.0
sub_58,1,dense_left,1025.4000000003725,img/object-9_120-levels_1D/object9F0Level51F1Level40.png,q,exemplar_display,24,35356,dense_left,p,1,False,52,22.0,22.0
sub_58,1,dense_left,670.1000000005588,img/object-9_120-levels_1D/object9F0Level77F1Level40.png,p,exemplar_display,26,37860,dense_left,p,1,True,78,26.0,26.0
sub_58,1,dense_left,936.0,img/object-9_120-levels_1D/object9F0Level41F1Level40.png,p,exemplar_display,28,40365,dense_left,p,1,True,42,-36.0,36.0
sub_58,1,dense_left,592.0999999996275,img/object-9_120-levels_1D/object9F0Level41F1Level40.png,q,exemplar_display,30,42869,dense_left,q,1,True,42,0.0,0.0
sub_58,1,dense_left,967.2000000001863,img/object-9_120-levels_1D/object9F0Level93F1Level40.png,p,exemplar_display,32,45374,dense_left,p,1,True,94,52.0,52.0
sub_58,1,dense_left,577.7000000001863,img/object-9_120-levels_1D/object9F0Level85F1Level40.png,q,exemplar_display,34,47884,dense_left,p,1,False,86,-8.0,8.0
sub_58,1,dense_left,631.7999999998137,img/object-9_120-levels_1D/object9F0Level85F1Level40.png,q,exemplar_display,36,50390,dense_left,q,1,True,86,0.0,0.0
sub_58,1,dense_left,556.7000000001863,img/object-9_120-levels_1D/object9F0Level93F1Level40.png,q,exemplar_display,38,52904,dense_left,p,1,False,94,8.0,8.0
sub_58,1,dense_left,771.7000000001863,img/object-9_120-levels_1D/object9F0Level57F1Level40.png,p,exemplar_display,40,55409,dense_left,p,1,True,58,-36.0,36.0
sub_58,1,dense_left,1338.5999999996275,img/object-9_120-levels_1D/object9F0Level69F1Level40.png,p,exemplar_display,42,57913,dense_left,p,1,True,70,12.0,12.0
sub_58,1,dense_left,722.2000000001863,img/object-9_120-levels_1D/object9F0Level33F1Level40.png,p,exemplar_display,44,60418,dense_left,p,1,True,34,-36.0,36.0
sub_58,1,dense_left,668.8000000007451,img/object-9_120-levels_1D/object9F0Level33F1Level40.png,q,exemplar_display,46,62923,dense_left,q,1,True,34,0.0,0.0
sub_58,1,dense_left,663.9000000003725,img/object-9_120-levels_1D/object9F0Level29F1Level40.png,q,exemplar_display,48,65426,dense_left,p,1,False,30,-4.0,4.0
sub_58,1,dense_left,589.2999999998137,img/object-9_120-levels_1D/object9F0Level101F1Level40.png,p,exemplar_display,50,67931,dense_left,p,1,True,102,72.0,72.0
sub_58,1,dense_left,635.2000000001863,img/object-9_120-levels_1D/object9F0Level101F1Level40.png,q,exemplar_display,52,70435,dense_left,q,1,True,102,0.0,0.0
sub_58,1,dense_left,770.6000000005588,img/object-9_120-levels_1D/object9F0Level63F1Level40.png,p,exemplar_display,54,72940,dense_left,p,1,True,64,-38.0,38.0
sub_58,1,dense_left,896.3999999994412,img/object-9_120-levels_1D/object9F0Level51F1Level40.png,q,exemplar_display,56,75444,dense_left,p,1,False,52,-12.0,12.0
sub_58,1,dense_left,1362.7000000001863,img/object-9_120-levels_1D/object9F0Level43F1Level40.png,p,exemplar_display,58,77948,dense_left,p,1,True,44,-8.0,8.0
sub_58,1,dense_left,886.7999999998137,img/object-9_120-levels_1D/object9F0Level53F1Level40.png,q,exemplar_display,60,80453,dense_left,p,1,False,54,10.0,10.0
sub_58,1,dense_left,1552.5,img/object-9_120-levels_1D/object9F0Level33F1Level40.png,q,exemplar_display,62,82959,dense_left,p,1,False,34,-20.0,20.0
sub_58,1,dense_left,707.2000000001863,img/object-9_120-levels_1D/object9F0Level53F1Level40.png,q,exemplar_display,64,85463,dense_left,p,1,False,54,20.0,20.0
sub_58,1,dense_left,472.90000000037253,img/object-9_120-levels_1D/object9F0Level39F1Level40.png,q,exemplar_display,66,87967,dense_left,p,1,False,40,-14.0,14.0
sub_58,1,dense_left,488.5,img/object-9_120-levels_1D/object9F0Level39F1Level40.png,q,exemplar_display,68,90477,dense_left,q,1,True,40,0.0,0.0
sub_58,1,dense_left,618.6000000005588,img/object-9_120-levels_1D/object9F0Level41F1Level40.png,q,exemplar_display,70,92983,dense_left,p,1,False,42,2.0,2.0
sub_58,1,dense_left,483.20000000018626,img/object-9_120-levels_1D/object9F0Level41F1Level40.png,q,exemplar_display,72,95488,dense_left,q,1,True,42,0.0,0.0
sub_58,1,dense_left,639.4000000003725,img/object-9_120-levels_1D/object9F0Level65F1Level40.png,p,exemplar_display,74,97991,dense_left,p,1,True,66,24.0,24.0
sub_58,1,dense_left,905.2999999998137,img/object-9_120-levels_1D/object9F0Level55F1Level40.png,q,exemplar_display,76,100496,dense_left,p,1,False,56,-10.0,10.0
sub_58,1,dense_left,779.6000000005588,img/object-9_120-levels_1D/object9F0Level47F1Level40.png,q,exemplar_display,78,103002,dense_left,p,1,False,48,-8.0,8.0
sub_58,1,dense_left,1074.8999999994412,img/object-9_120-levels_1D/object9F0Level47F1Level40.png,p,exemplar_display,80,105506,dense_left,q,1,False,48,0.0,0.0
sub_58,1,dense_left,870.3000000007451,img/object-9_120-levels_1D/object9F0Level109F1Level40.png,p,exemplar_display,82,108010,dense_left,p,1,True,110,62.0,62.0
sub_58,1,dense_left,915.2999999998137,img/object-9_120-levels_1D/object9F0Level77F1Level40.png,q,exemplar_display,84,110537,dense_left,p,1,False,78,-32.0,32.0
sub_58,1,dense_left,1079.7000000001863,img/object-9_120-levels_1D/object9F0Level101F1Level40.png,p,exemplar_display,86,113042,dense_left,p,1,True,102,24.0,24.0
sub_58,1,dense_left,923.4000000003725,img/object-9_120-levels_1D/object9F0Level77F1Level40.png,p,exemplar_display,88,115547,dense_left,p,1,True,78,-24.0,24.0
sub_58,1,dense_left,969.9000000003725,img/object-9_120-levels_1D/object9F0Level109F1Level40.png,p,exemplar_display,90,118051,dense_left,p,1,True,110,32.0,32.0
sub_58,1,dense_left,665.2999999998137,img/object-9_120-levels_1D/object9F0Level109F1Level40.png,q,exemplar_display,92,120567,dense_left,q,1,True,110,0.0,0.0
sub_58,1,dense_left,798.2999999998137,img/object-9_120-levels_1D/object9F0Level45F1Level40.png,p,exemplar_display,94,123072,dense_left,p,1,True,46,-64.0,64.0
sub_58,1,dense_left,1033.3999999994412,img/object-9_120-levels_1D/object9F0Level49F1Level40.png,q,exemplar_display,96,125577,dense_left,p,1,False,50,4.0,4.0
sub_58,1,dense_left,639.2000000001863,img/object-9_120-levels_1D/object9F0Level37F1Level40.png,q,exemplar_display,98,128082,dense_left,p,1,False,38,-12.0,12.0
sub_58,1,dense_left,535.1000000005588,img/object-9_120-levels_1D/object9F0Level37F1Level40.png,q,exemplar_display,100,130586,dense_left,q,1,True,38,0.0,0.0
sub_58,1,dense_left,854.4000000003725,img/object-9_120-levels_1D/object9F0Level49F1Level40.png,q,exemplar_display,102,133116,dense_left,p,1,False,50,12.0,12.0
sub_58,1,dense_left,579.8999999994412,img/object-9_120-levels_1D/object9F0Level37F1Level40.png,q,exemplar_display,104,135620,dense_left,p,1,False,38,-12.0,12.0
sub_58,1,dense_left,,img/object-9_120-levels_1D/object9F0Level53F1Level40.png,,exemplar_display,2,7619,dense_left,p,2,,54,16.0,16.0
sub_58,1,dense_left,489.40000000037253,img/object-9_120-levels_1D/object9F0Level55F1Level40.png,q,exemplar_display,4,10142,dense_left,p,2,False,56,2.0,2.0
sub_58,1,dense_left,499.20000000018626,img/object-9_120-levels_1D/object9F0Level57F1Level40.png,q,exemplar_display,6,12669,dense_left,p,2,False,58,2.0,2.0
sub_58,1,dense_left,399.59999999962747,img/object-9_120-levels_1D/object9F0Level41F1Level40.png,q,exemplar_display,8,15208,dense_left,p,2,False,42,-16.0,16.0
sub_58,1,dense_left,616.7999999998137,img/object-9_120-levels_1D/object9F0Level51F1Level40.png,q,exemplar_display,10,17719,dense_left,p,2,False,52,10.0,10.0
sub_58,1,dense_left,569.2000000001863,img/object-9_120-levels_1D/object9F0Level39F1Level40.png,q,exemplar_display,12,20259,dense_left,p,2,False,40,-12.0,12.0
sub_58,1,dense_left,776.3999999994412,img/object-9_120-levels_1D/object9F0Level57F1Level40.png,p,exemplar_display,14,22776,dense_left,p,2,True,58,18.0,18.0
sub_58,1,dense_left,883.7999999998137,img/object-9_120-levels_1D/object9F0Level77F1Level40.png,p,exemplar_display,16,25298,dense_left,p,2,True,78,20.0,20.0
sub_58,1,dense_left,838.7000000001863,img/object-9_120-levels_1D/object9F0Level77F1Level40.png,q,exemplar_display,18,27839,dense_left,q,2,True,78,0.0,0.0
sub_58,1,dense_left,890.7000000001863,img/object-9_120-levels_1D/object9F0Level35F1Level40.png,p,exemplar_display,20,30352,dense_left,p,2,True,36,-42.0,42.0
sub_58,1,dense_left,975.1999999992549,img/object-9_120-levels_1D/object9F0Level57F1Level40.png,p,exemplar_display,22,32857,dense_left,p,2,True,58,22.0,22.0
sub_58,1,dense_left,629.7999999998137,img/object-9_120-levels_1D/object9F0Level55F1Level40.png,q,exemplar_display,24,35374,dense_left,p,2,False,56,-2.0,2.0
sub_58,1,dense_left,531.9000000003725,img/object-9_120-levels_1D/object9F0Level55F1Level40.png,q,exemplar_display,26,37879,dense_left,q,2,True,56,0.0,0.0
sub_58,1,dense_left,636.0999999996275,img/object-9_120-levels_1D/object9F0Level31F1Level40.png,p,exemplar_display,28,40384,dense_left,p,2,True,32,-24.0,24.0
sub_58,1,dense_left,1003.2000000001863,img/object-9_120-levels_1D/object9F0Level55F1Level40.png,p,exemplar_display,30,42888,dense_left,p,2,True,56,24.0,24.0
sub_58,1,dense_left,1269.2000000001863,img/object-9_120-levels_1D/object9F0Level37F1Level40.png,p,exemplar_display,32,45392,dense_left,p,2,True,38,-18.0,18.0
sub_58,1,dense_left,763.8999999994412,img/object-9_120-levels_1D/object9F0Level109F1Level40.png,q,exemplar_display,34,47897,dense_left,p,2,False,110,72.0,72.0
sub_58,1,dense_left,1029.7999999998137,img/object-9_120-levels_1D/object9F0Level39F1Level40.png,p,exemplar_display,36,50402,dense_left,p,2,True,40,-70.0,70.0
sub_58,1,dense_left,1004.0999999996275,img/object-9_120-levels_1D/object9F0Level59F1Level40.png,p,exemplar_display,38,52908,dense_left,p,2,True,60,20.0,20.0
sub_58,1,dense_left,778.8000000007451,img/object-9_120-levels_1D/object9F0Level61F1Level40.png,q,exemplar_display,40,55412,dense_left,p,2,False,62,2.0,2.0
sub_58,1,dense_left,890.3999999994412,img/object-9_120-levels_1D/object9F0Level47F1Level40.png,q,exemplar_display,42,57922,dense_left,p,2,False,48,-14.0,14.0
sub_58,1,dense_left,675.0,img/object-9_120-levels_1D/object9F0Level93F1Level40.png,p,exemplar_display,44,60427,dense_left,p,2,True,94,46.0,46.0
sub_58,1,dense_left,1560.4000000003725,img/object-9_120-levels_1D/object9F0Level85F1Level40.png,p,exemplar_display,46,62932,dense_left,p,2,True,86,-8.0,8.0
sub_58,1,dense_left,974.4000000003725,img/object-9_120-levels_1D/object9F0Level37F1Level40.png,p,exemplar_display,48,65437,dense_left,p,2,True,38,-48.0,48.0
sub_58,1,dense_left,690.0999999996275,img/object-9_120-levels_1D/object9F0Level45F1Level40.png,q,exemplar_display,50,67942,dense_left,p,2,False,46,8.0,8.0
sub_58,1,dense_left,834.9000000003725,img/object-9_120-levels_1D/object9F0Level43F1Level40.png,q,exemplar_display,52,70447,dense_left,p,2,False,44,-2.0,2.0
sub_58,1,dense_left,510.19999999925494,img/object-9_120-levels_1D/object9F0Level43F1Level40.png,q,exemplar_display,54,72950,dense_left,q,2,True,44,0.0,0.0
sub_58,1,dense_left,855.5999999996275,img/object-9_120-levels_1D/object9F0Level63F1Level40.png,p,exemplar_display,56,75455,dense_left,p,2,True,64,20.0,20.0
sub_58,1,dense_left,950.2000000001863,img/object-9_120-levels_1D/object9F0Level31F1Level40.png,p,exemplar_display,58,77960,dense_left,p,2,True,32,-32.0,32.0
sub_58,1,dense_left,696.3999999994412,img/object-9_120-levels_1D/object9F0Level61F1Level40.png,p,exemplar_display,60,80464,dense_left,p,2,True,62,30.0,30.0
sub_58,1,dense_left,1161.2999999998137,img/object-9_120-levels_1D/object9F0Level45F1Level40.png,p,exemplar_display,62,82970,dense_left,p,2,True,46,-16.0,16.0
sub_58,1,dense_left,797.5,img/object-9_120-levels_1D/object9F0Level31F1Level40.png,q,exemplar_display,64,85474,dense_left,p,2,False,32,-14.0,14.0
sub_58,1,dense_left,572.4000000003725,img/object-9_120-levels_1D/object9F0Level31F1Level40.png,q,exemplar_display,66,87979,dense_left,q,2,True,32,0.0,0.0
sub_58,1,dense_left,1349.2000000001863,img/object-9_120-levels_1D/object9F0Level45F1Level40.png,q,exemplar_display,68,90491,dense_left,p,2,False,46,14.0,14.0
sub_58,1,dense_left,766.2000000001863,img/object-9_120-levels_1D/object9F0Level109F1Level40.png,p,exemplar_display,70,92995,dense_left,p,2,True,110,64.0,64.0
sub_58,1,dense_left,851.5,img/object-9_120-levels_1D/object9F0Level37F1Level40.png,p,exemplar_display,72,95513,dense_left,p,2,True,38,-72.0,72.0
sub_58,1,dense_left,753.2000000001863,img/object-9_120-levels_1D/object9F0Level37F1Level40.png,q,exemplar_display,74,98018,dense_left,q,2,True,38,0.0,0.0
sub_58,1,dense_left,668.5999999996275,img/object-9_120-levels_1D/object9F0Level49F1Level40.png,q,exemplar_display,76,100522,dense_left,p,2,False,50,12.0,12.0
sub_58,1,dense_left,833.0999999996275,img/object-9_120-levels_1D/object9F0Level63F1Level40.png,p,exemplar_display,78,103026,dense_left,p,2,True,64,14.0,14.0
sub_58,1,dense_left,870.5,img/object-9_120-levels_1D/object9F0Level45F1Level40.png,q,exemplar_display,80,105532,dense_left,p,2,False,46,-18.0,18.0
sub_58,1,dense_left,555.0,img/object-9_120-levels_1D/object9F0Level39F1Level40.png,q,exemplar_display,82,108037,dense_left,p,2,False,40,-6.0,6.0
sub_58,1,dense_left,540.0,img/object-9_120-levels_1D/object9F0Level45F1Level40.png,q,exemplar_display,84,110542,dense_left,p,2,False,46,6.0,6.0
sub_58,1,dense_left,502.59999999962747,img/object-9_120-levels_1D/object9F0Level45F1Level40.png,q,exemplar_display,86,113059,dense_left,q,2,True,46,0.0,0.0
sub_58,1,dense_left,586.6000000005588,img/object-9_120-levels_1D/object9F0Level47F1Level40.png,q,exemplar_display,88,115564,dense_left,p,2,False,48,2.0,2.0
sub_58,1,dense_left,472.5,img/object-9_120-levels_1D/object9F0Level57F1Level40.png,q,exemplar_display,90,118068,dense_left,p,2,False,58,10.0,10.0
sub_58,1,dense_left,878.5999999996275,img/object-9_120-levels_1D/object9F0Level35F1Level40.png,p,exemplar_display,92,120572,dense_left,p,2,True,36,-22.0,22.0
sub_58,1,dense_left,1125.199999999255,img/object-9_120-levels_1D/object9F0Level49F1Level40.png,q,exemplar_display,94,123089,dense_left,p,2,False,50,14.0,14.0
sub_58,1,dense_left,767.3999999994412,img/object-9_120-levels_1D/object9F0Level85F1Level40.png,p,exemplar_display,96,125593,dense_left,p,2,True,86,36.0,36.0
sub_58,1,dense_left,1073.0,img/object-9_120-levels_1D/object9F0Level59F1Level40.png,p,exemplar_display,98,128098,dense_left,p,2,True,60,-26.0,26.0
sub_58,1,dense_left,1739.2000000001863,img/object-9_120-levels_1D/object9F0Level53F1Level40.png,q,exemplar_display,100,130613,dense_left,p,2,False,54,-6.0,6.0
sub_58,1,dense_left,672.2999999998137,img/object-9_120-levels_1D/object9F0Level53F1Level40.png,q,exemplar_display,102,133118,dense_left,q,2,True,54,0.0,0.0
sub_58,1,dense_left,928.4000000003725,img/object-9_120-levels_1D/object9F0Level43F1Level40.png,q,exemplar_display,104,135623,dense_left,p,2,False,44,-10.0,10.0
sub_58,1,dense_left,,img/object-9_120-levels_1D/object9F0Level43F1Level40.png,,exemplar_display,2,7624,dense_left,q,3,,44,0.0,0.0
sub_58,1,dense_left,1321.8999999994412,img/object-9_120-levels_1D/object9F0Level59F1Level40.png,p,exemplar_display,4,10163,dense_left,p,3,True,60,16.0,16.0
sub_58,1,dense_left,971.5999999996275,img/object-9_120-levels_1D/object9F0Level85F1Level40.png,p,exemplar_display,6,12679,dense_left,p,3,True,86,26.0,26.0
sub_58,1,dense_left,640.0,img/object-9_120-levels_1D/object9F0Level69F1Level40.png,p,exemplar_display,8,15204,dense_left,p,3,True,70,-16.0,16.0
sub_58,1,dense_left,551.0999999996275,img/object-9_120-levels_1D/object9F0Level93F1Level40.png,p,exemplar_display,10,17744,dense_left,p,3,True,94,24.0,24.0
sub_58,1,dense_left,571.2999999998137,img/object-9_120-levels_1D/object9F0Level69F1Level40.png,p,exemplar_display,12,20274,dense_left,p,3,True,70,-24.0,24.0
sub_58,1,dense_left,821.5,img/object-9_120-levels_1D/object9F0Level63F1Level40.png,p,exemplar_display,14,22804,dense_left,p,3,True,64,-6.0,6.0
sub_58,1,dense_left,731.4000000003725,img/object-9_120-levels_1D/object9F0Level63F1Level40.png,q,exemplar_display,16,25343,dense_left,q,3,True,64,0.0,0.0
sub_58,1,dense_left,633.0,img/object-9_120-levels_1D/object9F0Level35F1Level40.png,p,exemplar_display,18,27863,dense_left,p,3,True,36,-28.0,28.0
sub_58,1,dense_left,1222.3999999994412,img/object-9_120-levels_1D/object9F0Level55F1Level40.png,p,exemplar_display,20,30387,dense_left,p,3,True,56,20.0,20.0
sub_58,1,dense_left,724.8000000007451,img/object-9_120-levels_1D/object9F0Level41F1Level40.png,q,exemplar_display,22,32893,dense_left,p,3,False,42,-14.0,14.0
sub_58,1,dense_left,601.0999999996275,img/object-9_120-levels_1D/object9F0Level69F1Level40.png,p,exemplar_display,24,35397,dense_left,p,3,True,70,28.0,28.0
sub_58,1,dense_left,826.7999999998137,img/object-9_120-levels_1D/object9F0Level47F1Level40.png,p,exemplar_display,26,37902,dense_left,p,3,True,48,-22.0,22.0
sub_58,1,dense_left,631.6999999992549,img/object-9_120-levels_1D/object9F0Level85F1Level40.png,p,exemplar_display,28,40407,dense_left,p,3,True,86,38.0,38.0
sub_58,1,dense_left,937.2000000001863,img/object-9_120-levels_1D/object9F0Level51F1Level40.png,p,exemplar_display,30,42911,dense_left,p,3,True,52,-34.0,34.0
sub_58,1,dense_left,646.8999999994412,img/object-9_120-levels_1D/object9F0Level51F1Level40.png,p,exemplar_display,32,45423,dense_left,q,3,False,52,0.0,0.0
sub_58,1,dense_left,730.7000000001863,img/object-9_120-levels_1D/object9F0Level29F1Level40.png,p,exemplar_display,34,47928,dense_left,p,3,True,30,-22.0,22.0
sub_58,1,dense_left,766.9000000003725,img/object-9_120-levels_1D/object9F0Level29F1Level40.png,q,exemplar_display,36,50431,dense_left,q,3,True,30,0.0,0.0
sub_58,1,dense_left,582.2999999998137,img/object-9_120-levels_1D/object9F0Level63F1Level40.png,p,exemplar_display,38,52937,dense_left,p,3,True,64,34.0,34.0
sub_58,1,dense_left,847.2000000001863,img/object-9_120-levels_1D/object9F0Level63F1Level40.png,p,exemplar_display,40,55442,dense_left,q,3,False,64,0.0,0.0
sub_58,1,dense_left,682.2999999998137,img/object-9_120-levels_1D/object9F0Level109F1Level40.png,p,exemplar_display,42,57947,dense_left,p,3,True,110,46.0,46.0
sub_58,1,dense_left,686.2000000001863,img/object-9_120-levels_1D/object9F0Level85F1Level40.png,p,exemplar_display,44,60452,dense_left,p,3,True,86,-24.0,24.0
sub_58,1,dense_left,602.0,img/object-9_120-levels_1D/object9F0Level51F1Level40.png,p,exemplar_display,46,62957,dense_left,p,3,True,52,-34.0,34.0
sub_58,1,dense_left,547.4000000003725,img/object-9_120-levels_1D/object9F0Level85F1Level40.png,p,exemplar_display,48,65460,dense_left,p,3,True,86,34.0,34.0
sub_58,1,dense_left,532.0,img/object-9_120-levels_1D/object9F0Level69F1Level40.png,p,exemplar_display,50,67966,dense_left,p,3,True,70,-16.0,16.0
sub_58,1,dense_left,708.3999999994412,img/object-9_120-levels_1D/object9F0Level69F1Level40.png,p,exemplar_display,52,70471,dense_left,q,3,False,70,0.0,0.0
sub_58,1,dense_left,922.7000000001863,img/object-9_120-levels_1D/object9F0Level59F1Level40.png,q,exemplar_display,54,72985,dense_left,p,3,False,60,-10.0,10.0
sub_58,1,dense_left,527.9000000003725,img/object-9_120-levels_1D/object9F0Level39F1Level40.png,p,exemplar_display,56,75490,dense_left,p,3,True,40,-20.0,20.0
sub_58,1,dense_left,582.5,img/object-9_120-levels_1D/object9F0Level93F1Level40.png,p,exemplar_display,58,77997,dense_left,p,3,True,94,54.0,54.0
sub_58,1,dense_left,866.5,img/object-9_120-levels_1D/object9F0Level29F1Level40.png,p,exemplar_display,60,80502,dense_left,p,3,True,30,-64.0,64.0
sub_58,1,dense_left,842.7000000001863,img/object-9_120-levels_1D/object9F0Level57F1Level40.png,p,exemplar_display,62,83006,dense_left,p,3,True,58,28.0,28.0
sub_58,1,dense_left,878.4000000003725,img/object-9_120-levels_1D/object9F0Level61F1Level40.png,p,exemplar_display,64,85510,dense_left,p,3,True,62,4.0,4.0
sub_58,1,dense_left,1023.4000000003725,img/object-9_120-levels_1D/object9F0Level61F1Level40.png,q,exemplar_display,66,88015,dense_left,q,3,True,62,0.0,0.0
sub_58,1,dense_left,558.8000000007451,img/object-9_120-levels_1D/object9F0Level37F1Level40.png,p,exemplar_display,68,90524,dense_left,p,3,True,38,-24.0,24.0
sub_58,1,dense_left,956.0,img/object-9_120-levels_1D/object9F0Level29F1Level40.png,p,exemplar_display,70,93042,dense_left,p,3,True,30,-8.0,8.0
sub_58,1,dense_left,712.4000000003725,img/object-9_120-levels_1D/object9F0Level61F1Level40.png,p,exemplar_display,72,95545,dense_left,p,3,True,62,32.0,32.0
sub_58,1,dense_left,928.0,img/object-9_120-levels_1D/object9F0Level65F1Level40.png,p,exemplar_display,74,98051,dense_left,p,3,True,66,4.0,4.0
sub_58,1,dense_left,1022.7999999998137,img/object-9_120-levels_1D/object9F0Level61F1Level40.png,p,exemplar_display,76,100555,dense_left,p,3,True,62,-4.0,4.0
sub_58,1,dense_left,558.4000000003725,img/object-9_120-levels_1D/object9F0Level109F1Level40.png,p,exemplar_display,78,103060,dense_left,p,3,True,110,48.0,48.0
sub_58,1,dense_left,843.2000000001863,img/object-9_120-levels_1D/object9F0Level109F1Level40.png,q,exemplar_display,80,105565,dense_left,q,3,True,110,0.0,0.0
sub_58,1,dense_left,537.8000000007451,img/object-9_120-levels_1D/object9F0Level109F1Level40.png,q,exemplar_display,82,108070,dense_left,q,3,True,110,0.0,0.0
sub_58,1,dense_left,474.40000000037253,img/object-9_120-levels_1D/object9F0Level47F1Level40.png,p,exemplar_display,84,110574,dense_left,p,3,True,48,-62.0,62.0
sub_58,1,dense_left,930.7000000001863,img/object-9_120-levels_1D/object9F0Level47F1Level40.png,q,exemplar_display,86,113078,dense_left,q,3,True,48,0.0,0.0
sub_58,1,dense_left,546.7000000001863,img/object-9_120-levels_1D/object9F0Level101F1Level40.png,p,exemplar_display,88,115582,dense_left,p,3,True,102,54.0,54.0
sub_58,1,dense_left,461.30000000074506,img/object-9_120-levels_1D/object9F0Level101F1Level40.png,p,exemplar_display,90,118087,dense_left,q,3,False,102,0.0,0.0
sub_58,1,dense_left,1247.300000000745,img/object-9_120-levels_1D/object9F0Level57F1Level40.png,p,exemplar_display,92,120591,dense_left,p,3,True,58,-44.0,44.0
sub_58,1,dense_left,880.4000000003725,img/object-9_120-levels_1D/object9F0Level57F1Level40.png,q,exemplar_display,94,123095,dense_left,q,3,True,58,0.0,0.0
sub_58,1,dense_left,518.6000000005588,img/object-9_120-levels_1D/object9F0Level39F1Level40.png,q,exemplar_display,96,125599,dense_left,p,3,False,40,-18.0,18.0
sub_58,1,dense_left,423.5,img/object-9_120-levels_1D/object9F0Level39F1Level40.png,q,exemplar_display,98,128104,dense_left,q,3,True,40,0.0,0.0
sub_58,1,dense_left,439.8999999994412,img/object-9_120-levels_1D/object9F0Level35F1Level40.png,q,exemplar_display,100,130607,dense_left,p,3,False,36,-4.0,4.0
sub_58,1,dense_left,676.7999999998137,img/object-9_120-levels_1D/object9F0Level77F1Level40.png,p,exemplar_display,102,133117,dense_left,p,3,True,78,42.0,42.0
sub_58,1,dense_left,566.8000000007451,img/object-9_120-levels_1D/object9F0Level53F1Level40.png,p,exemplar_display,104,135621,dense_left,p,3,True,54,-24.0,24.0
sub_58,1,dense_left,,img/object-9_120-levels_1D/object9F0Level93F1Level40.png,,exemplar_display,2,6635,dense_left,p,4,,94,40.0,40.0
sub_58,1,dense_left,712.7999999998137,img/object-9_120-levels_1D/object9F0Level37F1Level40.png,p,exemplar_display,4,9164,dense_left,p,4,True,38,-56.0,56.0
sub_58,1,dense_left,1203.5999999996275,img/object-9_120-levels_1D/object9F0Level55F1Level40.png,p,exemplar_display,6,11694,dense_left,p,4,True,56,18.0,18.0
sub_58,1,dense_left,642.7000000001863,img/object-9_120-levels_1D/object9F0Level29F1Level40.png,p,exemplar_display,8,14234,dense_left,p,4,True,30,-26.0,26.0
sub_58,1,dense_left,1243.2000000001863,img/object-9_120-levels_1D/object9F0Level63F1Level40.png,p,exemplar_display,10,16764,dense_left,p,4,True,64,34.0,34.0
sub_58,1,dense_left,943.3999999994412,img/object-9_120-levels_1D/object9F0Level65F1Level40.png,p,exemplar_display,12,19284,dense_left,p,4,True,66,2.0,2.0
sub_58,1,dense_left,863.2000000001863,img/object-9_120-levels_1D/object9F0Level65F1Level40.png,p,exemplar_display,14,21824,dense_left,q,4,False,66,0.0,0.0
sub_58,1,dense_left,551.0999999996275,img/object-9_120-levels_1D/object9F0Level61F1Level40.png,q,exemplar_display,16,24344,dense_left,p,4,False,62,-4.0,4.0
sub_58,1,dense_left,763.2999999998137,img/object-9_120-levels_1D/object9F0Level69F1Level40.png,p,exemplar_display,18,26864,dense_left,p,4,True,70,8.0,8.0
sub_58,1,dense_left,,img/object-9_120-levels_1D/object9F0Level49F1Level40.png,,exemplar_display,20,30387,dense_left,p,4,False,50,-20.0,20.0
sub_58,1,dense_left,947.2000000001863,img/object-9_120-levels_1D/object9F0Level49F1Level40.png,q,exemplar_display,22,32893,dense_left,q,4,True,50,0.0,0.0
sub_58,1,dense_left,723.0,img/object-9_120-levels_1D/object9F0Level51F1Level40.png,q,exemplar_display,24,35403,dense_left,p,4,False,52,2.0,2.0
sub_58,1,dense_left,423.40000000037253,img/object-9_120-levels_1D/object9F0Level51F1Level40.png,q,exemplar_display,26,37907,dense_left,q,4,True,52,0.0,0.0
sub_58,1,dense_left,539.2999999998137,img/object-9_120-levels_1D/object9F0Level69F1Level40.png,p,exemplar_display,28,40411,dense_left,p,4,True,70,18.0,18.0
sub_58,1,dense_left,904.3999999994412,img/object-9_120-levels_1D/object9F0Level43F1Level40.png,p,exemplar_display,30,42916,dense_left,p,4,True,44,-26.0,26.0
sub_58,1,dense_left,499.90000000037253,img/object-9_120-levels_1D/object9F0Level41F1Level40.png,p,exemplar_display,32,45420,dense_left,p,4,True,42,-2.0,2.0
sub_58,1,dense_left,456.19999999925494,img/object-9_120-levels_1D/object9F0Level43F1Level40.png,p,exemplar_display,34,47924,dense_left,p,4,True,44,2.0,2.0
sub_58,1,dense_left,1060.5,img/object-9_120-levels_1D/object9F0Level93F1Level40.png,p,exemplar_display,36,50429,dense_left,p,4,True,94,50.0,50.0
sub_58,1,dense_left,766.9000000003725,img/object-9_120-levels_1D/object9F0Level47F1Level40.png,p,exemplar_display,38,52934,dense_left,p,4,True,48,-46.0,46.0
sub_58,1,dense_left,533.0,img/object-9_120-levels_1D/object9F0Level41F1Level40.png,q,exemplar_display,40,55437,dense_left,p,4,False,42,-6.0,6.0
sub_58,1,dense_left,498.5,img/object-9_120-levels_1D/object9F0Level35F1Level40.png,q,exemplar_display,42,57942,dense_left,p,4,False,36,-6.0,6.0
sub_58,1,dense_left,1643.5999999996275,img/object-9_120-levels_1D/object9F0Level35F1Level40.png,q,exemplar_display,44,60448,dense_left,q,4,True,36,0.0,0.0
sub_58,1,dense_left,817.7000000001863,img/object-9_120-levels_1D/object9F0Level33F1Level40.png,q,exemplar_display,46,62952,dense_left,p,4,False,34,-2.0,2.0
sub_58,1,dense_left,794.2999999998137,img/object-9_120-levels_1D/object9F0Level33F1Level40.png,q,exemplar_display,48,65457,dense_left,q,4,True,34,0.0,0.0
sub_58,1,dense_left,458.6000000005588,img/object-9_120-levels_1D/object9F0Level37F1Level40.png,q,exemplar_display,50,67961,dense_left,p,4,False,38,4.0,4.0
sub_58,1,dense_left,616.5999999996275,img/object-9_120-levels_1D/object9F0Level57F1Level40.png,p,exemplar_display,52,70475,dense_left,p,4,True,58,20.0,20.0
sub_58,1,dense_left,671.3999999994412,img/object-9_120-levels_1D/object9F0Level57F1Level40.png,q,exemplar_display,54,72979,dense_left,q,4,True,58,0.0,0.0
sub_58,1,dense_left,460.09999999962747,img/object-9_120-levels_1D/object9F0Level101F1Level40.png,p,exemplar_display,56,75490,dense_left,p,4,True,102,44.0,44.0
sub_58,1,dense_left,815.6000000005588,img/object-9_120-levels_1D/object9F0Level59F1Level40.png,p,exemplar_display,58,77995,dense_left,p,4,True,60,-42.0,42.0
sub_58,1,dense_left,640.4000000003725,img/object-9_120-levels_1D/object9F0Level77F1Level40.png,p,exemplar_display,60,80500,dense_left,p,4,True,78,18.0,18.0
sub_58,1,dense_left,736.4000000003725,img/object-9_120-levels_1D/object9F0Level67F1Level40.png,p,exemplar_display,62,83004,dense_left,p,4,True,68,-10.0,10.0
sub_58,1,dense_left,451.59999999962747,img/object-9_120-levels_1D/object9F0Level67F1Level40.png,q,exemplar_display,64,85509,dense_left,q,4,True,68,0.0,0.0
sub_58,1,dense_left,906.8999999994412,img/object-9_120-levels_1D/object9F0Level77F1Level40.png,p,exemplar_display,66,88013,dense_left,p,4,True,78,10.0,10.0
sub_58,1,dense_left,592.9000000003725,img/object-9_120-levels_1D/object9F0Level33F1Level40.png,p,exemplar_display,68,90518,dense_left,p,4,True,34,-44.0,44.0
sub_58,1,dense_left,699.7999999998137,img/object-9_120-levels_1D/object9F0Level67F1Level40.png,p,exemplar_display,70,93021,dense_left,p,4,True,68,34.0,34.0
sub_58,1,dense_left,495.30000000074506,img/object-9_120-levels_1D/object9F0Level61F1Level40.png,q,exemplar_display,72,95525,dense_left,p,4,False,62,-6.0,6.0
sub_58,1,dense_left,730.7999999998137,img/object-9_120-levels_1D/object9F0Level39F1Level40.png,p,exemplar_display,74,98029,dense_left,p,4,True,40,-22.0,22.0
sub_58,1,dense_left,535.6999999992549,img/object-9_120-levels_1D/object9F0Level101F1Level40.png,p,exemplar_display,76,100534,dense_left,p,4,True,102,62.0,62.0
sub_58,1,dense_left,1223.5,img/object-9_120-levels_1D/object9F0Level59F1Level40.png,q,exemplar_display,78,103038,dense_left,p,4,False,60,-42.0,42.0
sub_58,1,dense_left,551.2999999998137,img/object-9_120-levels_1D/object9F0Level45F1Level40.png,q,exemplar_display,80,105548,dense_left,p,4,False,46,-14.0,14.0
sub_58,1,dense_left,677.8999999994412,img/object-9_120-levels_1D/object9F0Level65F1Level40.png,p,exemplar_display,82,108053,dense_left,p,4,True,66,20.0,20.0
sub_58,1,dense_left,513.1000000005588,img/object-9_120-levels_1D/object9F0Level109F1Level40.png,p,exemplar_display,84,110557,dense_left,p,4,True,110,44.0,44.0
sub_58,1,dense_left,579.2999999998137,img/object-9_120-levels_1D/object9F0Level33F1Level40.png,q,exemplar_display,86,113062,dense_left,p,4,False,34,-76.0,76.0
sub_58,1,dense_left,1415.1000000005588,img/object-9_120-levels_1D/object9F0Level31F1Level40.png,q,exemplar_display,88,115566,dense_left,p,4,False,32,-2.0,2.0
sub_58,1,dense_left,633.5999999996275,img/object-9_120-levels_1D/object9F0Level43F1Level40.png,q,exemplar_display,90,118078,dense_left,p,4,False,44,12.0,12.0
sub_58,1,dense_left,627.6000000005588,img/object-9_120-levels_1D/object9F0Level67F1Level40.png,p,exemplar_display,92,120583,dense_left,p,4,True,68,24.0,24.0
sub_58,1,dense_left,1131.8999999994412,img/object-9_120-levels_1D/object9F0Level29F1Level40.png,p,exemplar_display,94,123088,dense_left,p,4,True,30,-38.0,38.0
sub_58,1,dense_left,1198.0999999996275,img/object-9_120-levels_1D/object9F0Level45F1Level40.png,q,exemplar_display,96,125592,dense_left,p,4,False,46,16.0,16.0
sub_58,1,dense_left,482.30000000074506,img/object-9_120-levels_1D/object9F0Level31F1Level40.png,q,exemplar_display,98,128108,dense_left,p,4,False,32,-14.0,14.0
sub_58,1,dense_left,518.1999999992549,img/object-9_120-levels_1D/object9F0Level59F1Level40.png,p,exemplar_display,100,130612,dense_left,p,4,True,60,28.0,28.0
sub_58,1,dense_left,804.0,img/object-9_120-levels_1D/object9F0Level59F1Level40.png,q,exemplar_display,102,133117,dense_left,q,4,True,60,0.0,0.0
sub_58,1,dense_left,718.0,img/object-9_120-levels_1D/object9F0Level43F1Level40.png,q,exemplar_display,104,135622,dense_left,p,4,False,44,-16.0,16.0
sub_58,1,dense_left,,img/object-9_120-levels_1D/object9F0Level39F1Level40.png,,exemplar_display,2,7557,dense_left,p,5,,40,-4.0,4.0
sub_58,1,dense_left,795.0,img/object-9_120-levels_1D/object9F0Level59F1Level40.png,p,exemplar_display,4,10081,dense_left,p,5,True,60,20.0,20.0
sub_58,1,dense_left,697.0999999996275,img/object-9_120-levels_1D/object9F0Level33F1Level40.png,p,exemplar_display,6,12621,dense_left,p,5,True,34,-26.0,26.0
sub_58,1,dense_left,1165.3999999994412,img/object-9_120-levels_1D/object9F0Level49F1Level40.png,q,exemplar_display,8,15151,dense_left,p,5,False,50,16.0,16.0
sub_58,1,dense_left,575.2999999998137,img/object-9_120-levels_1D/object9F0Level67F1Level40.png,p,exemplar_display,10,17691,dense_left,p,5,True,68,18.0,18.0
sub_58,1,dense_left,785.9000000003725,img/object-9_120-levels_1D/object9F0Level63F1Level40.png,q,exemplar_display,12,20231,dense_left,p,5,False,64,-4.0,4.0
sub_58,1,dense_left,665.8000000007451,img/object-9_120-levels_1D/object9F0Level33F1Level40.png,p,exemplar_display,14,22761,dense_left,p,5,True,34,-30.0,30.0
sub_58,1,dense_left,675.2000000001863,img/object-9_120-levels_1D/object9F0Level31F1Level40.png,q,exemplar_display,16,25281,dense_left,p,5,False,32,-2.0,2.0
sub_58,1,dense_left,666.7000000001863,img/object-9_120-levels_1D/object9F0Level67F1Level40.png,p,exemplar_display,18,27801,dense_left,p,5,True,68,36.0,36.0
sub_58,1,dense_left,905.9000000003725,img/object-9_120-levels_1D/object9F0Level51F1Level40.png,p,exemplar_display,20,30323,dense_left,p,5,True,52,-16.0,16.0
sub_58,1,dense_left,1141.6000000005588,img/object-9_120-levels_1D/object9F0Level31F1Level40.png,p,exemplar_display,22,32827,dense_left,p,5,True,32,-20.0,20.0
sub_58,1,dense_left,887.0,img/object-9_120-levels_1D/object9F0Level69F1Level40.png,p,exemplar_display,24,35332,dense_left,p,5,True,70,38.0,38.0
sub_58,1,dense_left,692.0999999996275,img/object-9_120-levels_1D/object9F0Level67F1Level40.png,q,exemplar_display,26,37837,dense_left,p,5,False,68,-2.0,2.0
sub_58,1,dense_left,658.0,img/object-9_120-levels_1D/object9F0Level45F1Level40.png,p,exemplar_display,28,40341,dense_left,p,5,True,46,-22.0,22.0
sub_58,1,dense_left,1203.7999999998137,img/object-9_120-levels_1D/object9F0Level29F1Level40.png,q,exemplar_display,30,42845,dense_left,p,5,False,30,-16.0,16.0
sub_58,1,dense_left,729.7999999998137,img/object-9_120-levels_1D/object9F0Level65F1Level40.png,p,exemplar_display,32,45349,dense_left,p,5,True,66,36.0,36.0
sub_58,1,dense_left,784.4000000003725,img/object-9_120-levels_1D/object9F0Level65F1Level40.png,q,exemplar_display,34,47855,dense_left,q,5,True,66,0.0,0.0
sub_58,1,dense_left,539.9000000003725,img/object-9_120-levels_1D/object9F0Level65F1Level40.png,q,exemplar_display,36,50360,dense_left,q,5,True,66,0.0,0.0
sub_58,1,dense_left,586.2999999998137,img/object-9_120-levels_1D/object9F0Level67F1Level40.png,q,exemplar_display,38,52863,dense_left,p,5,False,68,2.0,2.0
sub_58,1,dense_left,693.0999999996275,img/object-9_120-levels_1D/object9F0Level51F1Level40.png,p,exemplar_display,40,55369,dense_left,p,5,True,52,-16.0,16.0
sub_58,1,dense_left,843.0999999996275,img/object-9_120-levels_1D/object9F0Level93F1Level40.png,p,exemplar_display,42,57888,dense_left,p,5,True,94,42.0,42.0
sub_58,1,dense_left,769.7000000001863,img/object-9_120-levels_1D/object9F0Level93F1Level40.png,q,exemplar_display,44,60391,dense_left,q,5,True,94,0.0,0.0
sub_58,1,dense_left,781.5,img/object-9_120-levels_1D/object9F0Level49F1Level40.png,p,exemplar_display,46,62909,dense_left,p,5,True,50,-44.0,44.0
sub_58,1,dense_left,1198.2999999998137,img/object-9_120-levels_1D/object9F0Level61F1Level40.png,q,exemplar_display,48,65414,dense_left,p,5,False,62,12.0,12.0
sub_58,1,dense_left,752.0,img/object-9_120-levels_1D/object9F0Level61F1Level40.png,q,exemplar_display,50,67919,dense_left,q,5,True,62,0.0,0.0
sub_58,1,dense_left,836.7000000001863,img/object-9_120-levels_1D/object9F0Level65F1Level40.png,p,exemplar_display,52,70424,dense_left,p,5,True,66,4.0,4.0
sub_58,1,dense_left,1562.5999999996275,img/object-9_120-levels_1D/object9F0Level49F1Level40.png,p,exemplar_display,54,72927,dense_left,p,5,True,50,-16.0,16.0
sub_58,1,dense_left,838.6000000005588,img/object-9_120-levels_1D/object9F0Level65F1Level40.png,p,exemplar_display,56,75432,dense_left,p,5,True,66,16.0,16.0
sub_58,1,dense_left,1193.5999999996275,img/object-9_120-levels_1D/object9F0Level43F1Level40.png,p,exemplar_display,58,77937,dense_left,p,5,True,44,-22.0,22.0
sub_58,1,dense_left,1079.4000000003725,img/object-9_120-levels_1D/object9F0Level77F1Level40.png,p,exemplar_display,60,80442,dense_left,p,5,True,78,34.0,34.0
sub_58,1,dense_left,585.5,img/object-9_120-levels_1D/object9F0Level33F1Level40.png,p,exemplar_display,62,82947,dense_left,p,5,True,34,-44.0,44.0
sub_58,1,dense_left,538.9000000003725,img/object-9_120-levels_1D/object9F0Level101F1Level40.png,p,exemplar_display,64,85451,dense_left,p,5,True,102,68.0,68.0
sub_58,1,dense_left,594.2000000001863,img/object-9_120-levels_1D/object9F0Level35F1Level40.png,p,exemplar_display,66,87956,dense_left,p,5,True,36,-66.0,66.0
sub_58,1,dense_left,511.29999999981374,img/object-9_120-levels_1D/object9F0Level35F1Level40.png,q,exemplar_display,68,90460,dense_left,q,5,True,36,0.0,0.0
sub_58,1,dense_left,624.5,img/object-9_120-levels_1D/object9F0Level77F1Level40.png,p,exemplar_display,70,92966,dense_left,p,5,True,78,42.0,42.0
sub_58,1,dense_left,530.2999999998137,img/object-9_120-levels_1D/object9F0Level31F1Level40.png,p,exemplar_display,72,95470,dense_left,p,5,True,32,-46.0,46.0
sub_58,1,dense_left,775.4000000003725,img/object-9_120-levels_1D/object9F0Level53F1Level40.png,p,exemplar_display,74,97975,dense_left,p,5,True,54,22.0,22.0
sub_58,1,dense_left,862.2000000001863,img/object-9_120-levels_1D/object9F0Level53F1Level40.png,q,exemplar_display,76,100480,dense_left,q,5,True,54,0.0,0.0
sub_58,1,dense_left,786.5,img/object-9_120-levels_1D/object9F0Level31F1Level40.png,p,exemplar_display,78,102984,dense_left,p,5,True,32,-22.0,22.0
sub_58,1,dense_left,932.0,img/object-9_120-levels_1D/object9F0Level49F1Level40.png,q,exemplar_display,80,105489,dense_left,p,5,False,50,18.0,18.0
sub_58,1,dense_left,516.6000000005588,img/object-9_120-levels_1D/object9F0Level93F1Level40.png,p,exemplar_display,82,107994,dense_left,p,5,True,94,44.0,44.0
sub_58,1,dense_left,852.5999999996275,img/object-9_120-levels_1D/object9F0Level41F1Level40.png,p,exemplar_display,84,110498,dense_left,p,5,True,42,-52.0,52.0
sub_58,1,dense_left,517.4000000003725,img/object-9_120-levels_1D/object9F0Level85F1Level40.png,p,exemplar_display,86,113014,dense_left,p,5,True,86,44.0,44.0
sub_58,1,dense_left,792.7000000001863,img/object-9_120-levels_1D/object9F0Level69F1Level40.png,p,exemplar_display,88,115518,dense_left,p,5,True,70,-16.0,16.0
sub_58,1,dense_left,878.3999999994412,img/object-9_120-levels_1D/object9F0Level55F1Level40.png,p,exemplar_display,90,118022,dense_left,p,5,True,56,-14.0,14.0
sub_58,1,dense_left,1057.2000000001863,img/object-9_120-levels_1D/object9F0Level63F1Level40.png,q,exemplar_display,92,120533,dense_left,p,5,False,64,8.0,8.0
sub_58,1,dense_left,772.7999999998137,img/object-9_120-levels_1D/object9F0Level41F1Level40.png,q,exemplar_display,94,123038,dense_left,p,5,False,42,-22.0,22.0
sub_58,1,dense_left,1164.0,img/object-9_120-levels_1D/object9F0Level55F1Level40.png,q,exemplar_display,96,125546,dense_left,p,5,False,56,14.0,14.0
sub_58,1,dense_left,500.1000000005588,img/object-9_120-levels_1D/object9F0Level55F1Level40.png,q,exemplar_display,98,128051,dense_left,q,5,True,56,0.0,0.0
sub_58,1,dense_left,1135.4000000003725,img/object-9_120-levels_1D/object9F0Level59F1Level40.png,p,exemplar_display,100,130555,dense_left,p,5,True,60,4.0,4.0
sub_58,1,dense_left,813.0,img/object-9_120-levels_1D/object9F0Level35F1Level40.png,p,exemplar_display,102,133067,dense_left,p,5,True,36,-24.0,24.0
sub_58,1,dense_left,699.2999999998137,img/object-9_120-levels_1D/object9F0Level47F1Level40.png,q,exemplar_display,104,135571,dense_left,p,5,False,48,12.0,12.0
sub_59,1,dense_right,,img/object-9_120-levels_1D/object9F0Level91F1Level40.png,,exemplar_display,2,20670,dense_right,,1,,92,,
sub_59,1,dense_right,1795.2000000001863,img/object-9_120-levels_1D/object9F0Level37F1Level40.png,p,exemplar_display,4,23199,dense_right,p,1,True,38,-54.0,54.0
sub_59,1,dense_right,1332.4000000003725,img/object-9_120-levels_1D/object9F0Level61F1Level40.png,q,exemplar_display,6,25729,dense_right,p,1,False,62,24.0,24.0
sub_59,1,dense_right,638.0,img/object-9_120-levels_1D/object9F0Level91F1Level40.png,p,exemplar_display,8,28250,dense_right,p,1,True,92,30.0,30.0
sub_59,1,dense_right,965.1999999992549,img/object-9_120-levels_1D/object9F0Level95F1Level40.png,q,exemplar_display,10,30761,dense_right,p,1,False,96,4.0,4.0
sub_59,1,dense_right,1383.2999999998137,img/object-9_120-levels_1D/object9F0Level101F1Level40.png,q,exemplar_display,12,33267,dense_right,p,1,False,102,6.0,6.0
sub_59,1,dense_right,584.7000000001863,img/object-9_120-levels_1D/object9F0Level101F1Level40.png,q,exemplar_display,14,35771,dense_right,q,1,True,102,0.0,0.0
sub_59,1,dense_right,750.1999999992549,img/object-9_120-levels_1D/object9F0Level95F1Level40.png,q,exemplar_display,16,38276,dense_right,p,1,False,96,-6.0,6.0
sub_59,1,dense_right,612.0,img/object-9_120-levels_1D/object9F0Level71F1Level40.png,p,exemplar_display,18,40798,dense_right,p,1,True,72,-24.0,24.0
sub_59,1,dense_right,1675.0,img/object-9_120-levels_1D/object9F0Level87F1Level40.png,p,exemplar_display,20,43303,dense_right,p,1,True,88,16.0,16.0
sub_59,1,dense_right,948.6000000005588,img/object-9_120-levels_1D/object9F0Level87F1Level40.png,q,exemplar_display,22,45807,dense_right,q,1,True,88,0.0,0.0
sub_59,1,dense_right,2204.800000000745,img/object-9_120-levels_1D/object9F0Level79F1Level40.png,q,exemplar_display,24,48515,dense_right,p,1,False,80,-8.0,8.0
sub_59,1,dense_right,781.0,img/object-9_120-levels_1D/object9F0Level97F1Level40.png,q,exemplar_display,26,51020,dense_right,p,1,False,98,18.0,18.0
sub_59,1,dense_right,1177.9000000003725,img/object-9_120-levels_1D/object9F0Level75F1Level40.png,p,exemplar_display,28,53527,dense_right,p,1,True,76,-22.0,22.0
sub_59,1,dense_right,1101.300000000745,img/object-9_120-levels_1D/object9F0Level75F1Level40.png,q,exemplar_display,30,56032,dense_right,q,1,True,76,0.0,0.0
sub_59,1,dense_right,1350.8999999994412,img/object-9_120-levels_1D/object9F0Level73F1Level40.png,q,exemplar_display,32,58537,dense_right,p,1,False,74,-2.0,2.0
sub_59,1,dense_right,595.1999999992549,img/object-9_120-levels_1D/object9F0Level101F1Level40.png,p,exemplar_display,34,61041,dense_right,p,1,True,102,28.0,28.0
sub_59,1,dense_right,968.5,img/object-9_120-levels_1D/object9F0Level81F1Level40.png,q,exemplar_display,36,63545,dense_right,p,1,False,82,-20.0,20.0
sub_59,1,dense_right,1354.1000000005588,img/object-9_120-levels_1D/object9F0Level37F1Level40.png,p,exemplar_display,38,66050,dense_right,p,1,True,38,-44.0,44.0
sub_59,1,dense_right,1172.7000000001863,img/object-9_120-levels_1D/object9F0Level73F1Level40.png,p,exemplar_display,40,68584,dense_right,p,1,True,74,36.0,36.0
sub_59,1,dense_right,951.7999999998137,img/object-9_120-levels_1D/object9F0Level95F1Level40.png,p,exemplar_display,42,71090,dense_right,p,1,True,96,22.0,22.0
sub_59,1,dense_right,1007.2999999998137,img/object-9_120-levels_1D/object9F0Level105F1Level40.png,q,exemplar_display,44,73596,dense_right,p,1,False,106,10.0,10.0
sub_59,1,dense_right,1180.4000000003725,img/object-9_120-levels_1D/object9F0Level79F1Level40.png,p,exemplar_display,46,76101,dense_right,p,1,True,80,-26.0,26.0
sub_59,1,dense_right,1354.0,img/object-9_120-levels_1D/object9F0Level89F1Level40.png,q,exemplar_display,48,78605,dense_right,p,1,False,90,10.0,10.0
sub_59,1,dense_right,1533.6000000005588,img/object-9_120-levels_1D/object9F0Level103F1Level40.png,p,exemplar_display,50,81110,dense_right,p,1,True,104,14.0,14.0
sub_59,1,dense_right,1032.2000000001863,img/object-9_120-levels_1D/object9F0Level103F1Level40.png,q,exemplar_display,52,83616,dense_right,q,1,True,104,0.0,0.0
sub_59,1,dense_right,938.7000000001863,img/object-9_120-levels_1D/object9F0Level93F1Level40.png,q,exemplar_display,54,86121,dense_right,p,1,False,94,-10.0,10.0
sub_59,1,dense_right,745.0,img/object-9_120-levels_1D/object9F0Level93F1Level40.png,q,exemplar_display,56,88626,dense_right,q,1,True,94,0.0,0.0
sub_59,1,dense_right,1048.2999999998137,img/object-9_120-levels_1D/object9F0Level81F1Level40.png,p,exemplar_display,58,91131,dense_right,p,1,True,82,-12.0,12.0
sub_59,1,dense_right,982.9000000003725,img/object-9_120-levels_1D/object9F0Level69F1Level40.png,p,exemplar_display,60,93637,dense_right,p,1,True,70,-12.0,12.0
sub_59,1,dense_right,929.4000000003725,img/object-9_120-levels_1D/object9F0Level107F1Level40.png,p,exemplar_display,62,96141,dense_right,p,1,True,108,38.0,38.0
sub_59,1,dense_right,798.7000000001863,img/object-9_120-levels_1D/object9F0Level73F1Level40.png,p,exemplar_display,64,98646,dense_right,p,1,True,74,-34.0,34.0
sub_59,1,dense_right,782.1000000005588,img/object-9_120-levels_1D/object9F0Level87F1Level40.png,p,exemplar_display,66,101151,dense_right,p,1,True,88,14.0,14.0
sub_59,1,dense_right,738.2000000001863,img/object-9_120-levels_1D/object9F0Level45F1Level40.png,p,exemplar_display,68,103656,dense_right,p,1,True,46,-42.0,42.0
sub_59,1,dense_right,687.8999999994412,img/object-9_120-levels_1D/object9F0Level99F1Level40.png,p,exemplar_display,70,106160,dense_right,p,1,True,100,54.0,54.0
sub_59,1,dense_right,704.6000000005588,img/object-9_120-levels_1D/object9F0Level53F1Level40.png,p,exemplar_display,72,108666,dense_right,p,1,True,54,-46.0,46.0
sub_59,1,dense_right,1088.8999999994412,img/object-9_120-levels_1D/object9F0Level99F1Level40.png,p,exemplar_display,74,111173,dense_right,p,1,True,100,46.0,46.0
sub_59,1,dense_right,884.0,img/object-9_120-levels_1D/object9F0Level95F1Level40.png,q,exemplar_display,76,113679,dense_right,p,1,False,96,-4.0,4.0
sub_59,1,dense_right,1216.5,img/object-9_120-levels_1D/object9F0Level99F1Level40.png,p,exemplar_display,78,116184,dense_right,p,1,True,100,4.0,4.0
sub_59,1,dense_right,1171.3999999994412,img/object-9_120-levels_1D/object9F0Level83F1Level40.png,p,exemplar_display,80,118689,dense_right,p,1,True,84,-16.0,16.0
sub_59,1,dense_right,1489.5,img/object-9_120-levels_1D/object9F0Level81F1Level40.png,q,exemplar_display,82,121210,dense_right,p,1,False,82,-2.0,2.0
sub_59,1,dense_right,1255.2000000001863,img/object-9_120-levels_1D/object9F0Level69F1Level40.png,p,exemplar_display,84,123716,dense_right,p,1,True,70,-12.0,12.0
sub_59,1,dense_right,1660.0,img/object-9_120-levels_1D/object9F0Level105F1Level40.png,p,exemplar_display,86,126220,dense_right,p,1,True,106,36.0,36.0
sub_59,1,dense_right,1139.2999999998137,img/object-9_120-levels_1D/object9F0Level81F1Level40.png,p,exemplar_display,88,128726,dense_right,p,1,True,82,-24.0,24.0
sub_59,1,dense_right,841.0,img/object-9_120-levels_1D/object9F0Level81F1Level40.png,q,exemplar_display,90,131232,dense_right,q,1,True,82,0.0,0.0
sub_59,1,dense_right,696.1000000005588,img/object-9_120-levels_1D/object9F0Level85F1Level40.png,q,exemplar_display,92,133737,dense_right,p,1,False,86,4.0,4.0
sub_59,1,dense_right,894.1000000005588,img/object-9_120-levels_1D/object9F0Level101F1Level40.png,p,exemplar_display,94,136242,dense_right,p,1,True,102,16.0,16.0
sub_59,1,dense_right,1106.699999999255,img/object-9_120-levels_1D/object9F0Level101F1Level40.png,q,exemplar_display,96,138756,dense_right,q,1,True,102,0.0,0.0
sub_59,1,dense_right,1240.2999999998137,img/object-9_120-levels_1D/object9F0Level75F1Level40.png,p,exemplar_display,98,141261,dense_right,p,1,True,76,-26.0,26.0
sub_59,1,dense_right,801.0999999996275,img/object-9_120-levels_1D/object9F0Level103F1Level40.png,p,exemplar_display,100,143765,dense_right,p,1,True,104,28.0,28.0
sub_59,1,dense_right,842.6999999992549,img/object-9_120-levels_1D/object9F0Level105F1Level40.png,q,exemplar_display,102,146271,dense_right,p,1,False,106,2.0,2.0
sub_59,1,dense_right,596.0,img/object-9_120-levels_1D/object9F0Level105F1Level40.png,q,exemplar_display,104,148776,dense_right,q,1,True,106,0.0,0.0
sub_59,1,dense_right,,img/object-9_120-levels_1D/object9F0Level69F1Level40.png,,exemplar_display,2,20457,dense_right,p,2,,70,-36.0,36.0
sub_59,1,dense_right,1093.8999999994412,img/object-9_120-levels_1D/object9F0Level53F1Level40.png,p,exemplar_display,4,22977,dense_right,p,2,True,54,-16.0,16.0
sub_59,1,dense_right,825.2999999998137,img/object-9_120-levels_1D/object9F0Level99F1Level40.png,p,exemplar_display,6,25518,dense_right,p,2,True,100,46.0,46.0
sub_59,1,dense_right,760.8999999994412,img/object-9_120-levels_1D/object9F0Level37F1Level40.png,p,exemplar_display,8,28057,dense_right,p,2,True,38,-62.0,62.0
sub_59,1,dense_right,734.2999999998137,img/object-9_120-levels_1D/object9F0Level83F1Level40.png,p,exemplar_display,10,30580,dense_right,p,2,True,84,46.0,46.0
sub_59,1,dense_right,956.1000000005588,img/object-9_120-levels_1D/object9F0Level109F1Level40.png,p,exemplar_display,12,33085,dense_right,p,2,True,110,26.0,26.0
sub_59,1,dense_right,695.8999999994412,img/object-9_120-levels_1D/object9F0Level29F1Level40.png,p,exemplar_display,14,35590,dense_right,p,2,True,30,-80.0,80.0
sub_59,1,dense_right,687.0,img/object-9_120-levels_1D/object9F0Level105F1Level40.png,p,exemplar_display,16,38095,dense_right,p,2,True,106,76.0,76.0
sub_59,1,dense_right,870.9000000003725,img/object-9_120-levels_1D/object9F0Level101F1Level40.png,q,exemplar_display,18,40600,dense_right,p,2,False,102,-4.0,4.0
sub_59,1,dense_right,1018.2999999998137,img/object-9_120-levels_1D/object9F0Level99F1Level40.png,q,exemplar_display,20,43106,dense_right,p,2,False,100,-2.0,2.0
sub_59,1,dense_right,622.2999999998137,img/object-9_120-levels_1D/object9F0Level99F1Level40.png,q,exemplar_display,22,45611,dense_right,q,2,True,100,0.0,0.0
sub_59,1,dense_right,945.1000000005588,img/object-9_120-levels_1D/object9F0Level95F1Level40.png,q,exemplar_display,24,48116,dense_right,p,2,False,96,-4.0,4.0
sub_59,1,dense_right,743.3999999994412,img/object-9_120-levels_1D/object9F0Level95F1Level40.png,q,exemplar_display,26,50622,dense_right,q,2,True,96,0.0,0.0
sub_59,1,dense_right,821.7000000001863,img/object-9_120-levels_1D/object9F0Level107F1Level40.png,p,exemplar_display,28,53130,dense_right,p,2,True,108,12.0,12.0
sub_59,1,dense_right,890.7000000001863,img/object-9_120-levels_1D/object9F0Level107F1Level40.png,q,exemplar_display,30,55635,dense_right,q,2,True,108,0.0,0.0
sub_59,1,dense_right,1071.2000000001863,img/object-9_120-levels_1D/object9F0Level61F1Level40.png,p,exemplar_display,32,58141,dense_right,p,2,True,62,-46.0,46.0
sub_59,1,dense_right,825.8999999994412,img/object-9_120-levels_1D/object9F0Level107F1Level40.png,p,exemplar_display,34,60646,dense_right,p,2,True,108,46.0,46.0
sub_59,1,dense_right,825.7000000001863,img/object-9_120-levels_1D/object9F0Level71F1Level40.png,p,exemplar_display,36,63168,dense_right,p,2,True,72,-36.0,36.0
sub_59,1,dense_right,1337.0,img/object-9_120-levels_1D/object9F0Level29F1Level40.png,p,exemplar_display,38,65673,dense_right,p,2,True,30,-42.0,42.0
sub_59,1,dense_right,708.2000000001863,img/object-9_120-levels_1D/object9F0Level89F1Level40.png,p,exemplar_display,40,68177,dense_right,p,2,True,90,60.0,60.0
sub_59,1,dense_right,749.7999999998137,img/object-9_120-levels_1D/object9F0Level45F1Level40.png,p,exemplar_display,42,70682,dense_right,p,2,True,46,-44.0,44.0
sub_59,1,dense_right,965.3999999994412,img/object-9_120-levels_1D/object9F0Level53F1Level40.png,q,exemplar_display,44,73187,dense_right,p,2,False,54,8.0,8.0
sub_59,1,dense_right,863.7000000001863,img/object-9_120-levels_1D/object9F0Level53F1Level40.png,q,exemplar_display,46,75692,dense_right,q,2,True,54,0.0,0.0
sub_59,1,dense_right,739.9000000003725,img/object-9_120-levels_1D/object9F0Level37F1Level40.png,q,exemplar_display,48,78198,dense_right,p,2,False,38,-16.0,16.0
sub_59,1,dense_right,816.5,img/object-9_120-levels_1D/object9F0Level37F1Level40.png,q,exemplar_display,50,80703,dense_right,q,2,True,38,0.0,0.0
sub_59,1,dense_right,1092.9000000003725,img/object-9_120-levels_1D/object9F0Level95F1Level40.png,p,exemplar_display,52,83208,dense_right,p,2,True,96,58.0,58.0
sub_59,1,dense_right,1121.4000000003725,img/object-9_120-levels_1D/object9F0Level79F1Level40.png,p,exemplar_display,54,85714,dense_right,p,2,True,80,-16.0,16.0
sub_59,1,dense_right,844.8999999994412,img/object-9_120-levels_1D/object9F0Level77F1Level40.png,q,exemplar_display,56,88220,dense_right,p,2,False,78,-2.0,2.0
sub_59,1,dense_right,1433.7000000001863,img/object-9_120-levels_1D/object9F0Level77F1Level40.png,q,exemplar_display,58,90726,dense_right,q,2,True,78,0.0,0.0
sub_59,1,dense_right,609.2999999998137,img/object-9_120-levels_1D/object9F0Level87F1Level40.png,q,exemplar_display,60,93232,dense_right,p,2,False,88,10.0,10.0
sub_59,1,dense_right,828.2000000001863,img/object-9_120-levels_1D/object9F0Level75F1Level40.png,p,exemplar_display,62,95753,dense_right,p,2,True,76,-12.0,12.0
sub_59,1,dense_right,772.9000000003725,img/object-9_120-levels_1D/object9F0Level105F1Level40.png,p,exemplar_display,64,98259,dense_right,p,2,True,106,30.0,30.0
sub_59,1,dense_right,770.8999999994412,img/object-9_120-levels_1D/object9F0Level77F1Level40.png,p,exemplar_display,66,100765,dense_right,p,2,True,78,-28.0,28.0
sub_59,1,dense_right,981.3999999994412,img/object-9_120-levels_1D/object9F0Level91F1Level40.png,p,exemplar_display,68,103271,dense_right,p,2,True,92,14.0,14.0
sub_59,1,dense_right,2023.2000000001863,img/object-9_120-levels_1D/object9F0Level91F1Level40.png,q,exemplar_display,70,105798,dense_right,q,2,True,92,0.0,0.0
sub_59,1,dense_right,929.7000000001863,img/object-9_120-levels_1D/object9F0Level73F1Level40.png,p,exemplar_display,72,108303,dense_right,p,2,True,74,-18.0,18.0
sub_59,1,dense_right,719.0,img/object-9_120-levels_1D/object9F0Level107F1Level40.png,p,exemplar_display,74,110809,dense_right,p,2,True,108,34.0,34.0
sub_59,1,dense_right,1098.8999999994412,img/object-9_120-levels_1D/object9F0Level93F1Level40.png,p,exemplar_display,76,113314,dense_right,p,2,True,94,-14.0,14.0
sub_59,1,dense_right,780.0999999996275,img/object-9_120-levels_1D/object9F0Level61F1Level40.png,p,exemplar_display,78,115835,dense_right,p,2,True,62,-32.0,32.0
sub_59,1,dense_right,715.0,img/object-9_120-levels_1D/object9F0Level87F1Level40.png,p,exemplar_display,80,118340,dense_right,p,2,True,88,26.0,26.0
sub_59,1,dense_right,708.8999999994412,img/object-9_120-levels_1D/object9F0Level45F1Level40.png,p,exemplar_display,82,120845,dense_right,p,2,True,46,-42.0,42.0
sub_59,1,dense_right,1135.3999999994412,img/object-9_120-levels_1D/object9F0Level29F1Level40.png,p,exemplar_display,84,123350,dense_right,p,2,True,30,-16.0,16.0
sub_59,1,dense_right,931.7999999998137,img/object-9_120-levels_1D/object9F0Level29F1Level40.png,q,exemplar_display,86,125854,dense_right,q,2,True,30,0.0,0.0
sub_59,1,dense_right,1658.300000000745,img/object-9_120-levels_1D/object9F0Level81F1Level40.png,p,exemplar_display,88,128359,dense_right,p,2,True,82,52.0,52.0
sub_59,1,dense_right,791.0999999996275,img/object-9_120-levels_1D/object9F0Level61F1Level40.png,p,exemplar_display,90,130864,dense_right,p,2,True,62,-20.0,20.0
sub_59,1,dense_right,963.5,img/object-9_120-levels_1D/object9F0Level105F1Level40.png,p,exemplar_display,92,133386,dense_right,p,2,True,106,44.0,44.0
sub_59,1,dense_right,700.3999999994412,img/object-9_120-levels_1D/object9F0Level45F1Level40.png,p,exemplar_display,94,135893,dense_right,p,2,True,46,-60.0,60.0
sub_59,1,dense_right,820.7000000001863,img/object-9_120-levels_1D/object9F0Level45F1Level40.png,q,exemplar_display,96,138397,dense_right,q,2,True,46,0.0,0.0
sub_59,1,dense_right,957.2000000001863,img/object-9_120-levels_1D/object9F0Level109F1Level40.png,p,exemplar_display,98,140901,dense_right,p,2,True,110,64.0,64.0
sub_59,1,dense_right,817.5,img/object-9_120-levels_1D/object9F0Level61F1Level40.png,p,exemplar_display,100,143405,dense_right,p,2,True,62,-48.0,48.0
sub_59,1,dense_right,705.7000000001863,img/object-9_120-levels_1D/object9F0Level61F1Level40.png,q,exemplar_display,102,145910,dense_right,q,2,True,62,0.0,0.0
sub_59,1,dense_right,1063.2999999998137,img/object-9_120-levels_1D/object9F0Level61F1Level40.png,q,exemplar_display,104,148416,dense_right,q,2,True,62,0.0,0.0
sub_59,1,dense_right,,img/object-9_120-levels_1D/object9F0Level77F1Level40.png,,exemplar_display,2,20470,dense_right,p,3,,78,16.0,16.0
sub_59,1,dense_right,1175.7999999998137,img/object-9_120-levels_1D/object9F0Level77F1Level40.png,q,exemplar_display,4,23000,dense_right,q,3,True,78,0.0,0.0
sub_59,1,dense_right,849.4000000003725,img/object-9_120-levels_1D/object9F0Level85F1Level40.png,p,exemplar_display,6,25540,dense_right,p,3,True,86,8.0,8.0
sub_59,1,dense_right,1044.2000000001863,img/object-9_120-levels_1D/object9F0Level75F1Level40.png,q,exemplar_display,8,28070,dense_right,p,3,False,76,-10.0,10.0
sub_59,1,dense_right,642.2000000001863,img/object-9_120-levels_1D/object9F0Level69F1Level40.png,q,exemplar_display,10,30593,dense_right,p,3,False,70,-6.0,6.0
sub_59,1,dense_right,765.7999999998137,img/object-9_120-levels_1D/object9F0Level69F1Level40.png,q,exemplar_display,12,33100,dense_right,q,3,True,70,0.0,0.0
sub_59,1,dense_right,849.0,img/object-9_120-levels_1D/object9F0Level69F1Level40.png,q,exemplar_display,14,35607,dense_right,q,3,True,70,0.0,0.0
sub_59,1,dense_right,898.9000000003725,img/object-9_120-levels_1D/object9F0Level85F1Level40.png,p,exemplar_display,16,38113,dense_right,p,3,True,86,16.0,16.0
sub_59,1,dense_right,1168.300000000745,img/object-9_120-levels_1D/object9F0Level69F1Level40.png,p,exemplar_display,18,40618,dense_right,p,3,True,70,-16.0,16.0
sub_59,1,dense_right,889.7999999998137,img/object-9_120-levels_1D/object9F0Level69F1Level40.png,q,exemplar_display,20,43123,dense_right,q,3,True,70,0.0,0.0
sub_59,1,dense_right,814.7000000001863,img/object-9_120-levels_1D/object9F0Level79F1Level40.png,p,exemplar_display,22,45629,dense_right,p,3,True,80,10.0,10.0
sub_59,1,dense_right,899.0,img/object-9_120-levels_1D/object9F0Level53F1Level40.png,p,exemplar_display,24,48135,dense_right,p,3,True,54,-26.0,26.0
sub_59,1,dense_right,850.0999999996275,img/object-9_120-levels_1D/object9F0Level89F1Level40.png,p,exemplar_display,26,50639,dense_right,p,3,True,90,36.0,36.0
sub_59,1,dense_right,838.8999999994412,img/object-9_120-levels_1D/object9F0Level91F1Level40.png,q,exemplar_display,28,53144,dense_right,p,3,False,92,2.0,2.0
sub_59,1,dense_right,865.2000000001863,img/object-9_120-levels_1D/object9F0Level71F1Level40.png,p,exemplar_display,30,55651,dense_right,p,3,True,72,-20.0,20.0
sub_59,1,dense_right,998.2999999998137,img/object-9_120-levels_1D/object9F0Level83F1Level40.png,p,exemplar_display,32,58156,dense_right,p,3,True,84,12.0,12.0
sub_59,1,dense_right,947.5,img/object-9_120-levels_1D/object9F0Level77F1Level40.png,q,exemplar_display,34,60661,dense_right,p,3,False,78,-6.0,6.0
sub_59,1,dense_right,1141.0,img/object-9_120-levels_1D/object9F0Level71F1Level40.png,p,exemplar_display,36,63166,dense_right,p,3,True,72,-6.0,6.0
sub_59,1,dense_right,941.6000000005588,img/object-9_120-levels_1D/object9F0Level83F1Level40.png,p,exemplar_display,38,65671,dense_right,p,3,True,84,12.0,12.0
sub_59,1,dense_right,844.0999999996275,img/object-9_120-levels_1D/object9F0Level79F1Level40.png,q,exemplar_display,40,68177,dense_right,p,3,False,80,-4.0,4.0
sub_59,1,dense_right,1064.2999999998137,img/object-9_120-levels_1D/object9F0Level95F1Level40.png,p,exemplar_display,42,70681,dense_right,p,3,True,96,16.0,16.0
sub_59,1,dense_right,775.4000000003725,img/object-9_120-levels_1D/object9F0Level71F1Level40.png,p,exemplar_display,44,73186,dense_right,p,3,True,72,-24.0,24.0
sub_59,1,dense_right,716.7000000001863,img/object-9_120-levels_1D/object9F0Level71F1Level40.png,q,exemplar_display,46,75692,dense_right,q,3,True,72,0.0,0.0
sub_59,1,dense_right,695.0999999996275,img/object-9_120-levels_1D/object9F0Level87F1Level40.png,p,exemplar_display,48,78197,dense_right,p,3,True,88,16.0,16.0
sub_59,1,dense_right,985.5,img/object-9_120-levels_1D/object9F0Level85F1Level40.png,q,exemplar_display,50,80700,dense_right,p,3,False,86,-2.0,2.0
sub_59,1,dense_right,853.7999999998137,img/object-9_120-levels_1D/object9F0Level53F1Level40.png,p,exemplar_display,52,83205,dense_right,p,3,True,54,-32.0,32.0
sub_59,1,dense_right,706.3000000007451,img/object-9_120-levels_1D/object9F0Level87F1Level40.png,p,exemplar_display,54,85711,dense_right,p,3,True,88,34.0,34.0
sub_59,1,dense_right,868.7999999998137,img/object-9_120-levels_1D/object9F0Level101F1Level40.png,p,exemplar_display,56,88215,dense_right,p,3,True,102,14.0,14.0
sub_59,1,dense_right,716.2999999998137,img/object-9_120-levels_1D/object9F0Level71F1Level40.png,p,exemplar_display,58,90720,dense_right,p,3,True,72,-30.0,30.0
sub_59,1,dense_right,563.1999999992549,img/object-9_120-levels_1D/object9F0Level95F1Level40.png,p,exemplar_display,60,93225,dense_right,p,3,True,96,24.0,24.0
sub_59,1,dense_right,793.8000000007451,img/object-9_120-levels_1D/object9F0Level93F1Level40.png,q,exemplar_display,62,95730,dense_right,p,3,False,94,-2.0,2.0
sub_59,1,dense_right,1194.0,img/object-9_120-levels_1D/object9F0Level93F1Level40.png,q,exemplar_display,64,98236,dense_right,q,3,True,94,0.0,0.0
sub_59,1,dense_right,1394.2999999998137,img/object-9_120-levels_1D/object9F0Level99F1Level40.png,q,exemplar_display,66,100740,dense_right,p,3,False,100,6.0,6.0
sub_59,1,dense_right,591.2999999998137,img/object-9_120-levels_1D/object9F0Level99F1Level40.png,q,exemplar_display,68,103245,dense_right,q,3,True,100,0.0,0.0
sub_59,1,dense_right,930.6000000005588,img/object-9_120-levels_1D/object9F0Level97F1Level40.png,q,exemplar_display,70,105749,dense_right,p,3,False,98,-2.0,2.0
sub_59,1,dense_right,1035.9000000003725,img/object-9_120-levels_1D/object9F0Level103F1Level40.png,p,exemplar_display,72,108254,dense_right,p,3,True,104,6.0,6.0
sub_59,1,dense_right,767.5,img/object-9_120-levels_1D/object9F0Level37F1Level40.png,p,exemplar_display,74,110759,dense_right,p,3,True,38,-66.0,66.0
sub_59,1,dense_right,1015.0999999996275,img/object-9_120-levels_1D/object9F0Level37F1Level40.png,q,exemplar_display,76,113264,dense_right,q,3,True,38,0.0,0.0
sub_59,1,dense_right,564.1999999992549,img/object-9_120-levels_1D/object9F0Level99F1Level40.png,p,exemplar_display,78,115768,dense_right,p,3,True,100,62.0,62.0
sub_59,1,dense_right,1189.7000000001863,img/object-9_120-levels_1D/object9F0Level81F1Level40.png,p,exemplar_display,80,118272,dense_right,p,3,True,82,-18.0,18.0
sub_59,1,dense_right,925.0999999996275,img/object-9_120-levels_1D/object9F0Level105F1Level40.png,p,exemplar_display,82,120777,dense_right,p,3,True,106,24.0,24.0
sub_59,1,dense_right,800.7000000001863,img/object-9_120-levels_1D/object9F0Level105F1Level40.png,q,exemplar_display,84,123295,dense_right,q,3,True,106,0.0,0.0
sub_59,1,dense_right,945.0999999996275,img/object-9_120-levels_1D/object9F0Level77F1Level40.png,p,exemplar_display,86,125799,dense_right,p,3,True,78,-28.0,28.0
sub_59,1,dense_right,791.0999999996275,img/object-9_120-levels_1D/object9F0Level107F1Level40.png,p,exemplar_display,88,128305,dense_right,p,3,True,108,30.0,30.0
sub_59,1,dense_right,735.2999999998137,img/object-9_120-levels_1D/object9F0Level71F1Level40.png,p,exemplar_display,90,130810,dense_right,p,3,True,72,-36.0,36.0
sub_59,1,dense_right,629.1999999992549,img/object-9_120-levels_1D/object9F0Level93F1Level40.png,p,exemplar_display,92,133316,dense_right,p,3,True,94,22.0,22.0
sub_59,1,dense_right,1000.9000000003725,img/object-9_120-levels_1D/object9F0Level103F1Level40.png,p,exemplar_display,94,135822,dense_right,p,3,True,104,10.0,10.0
sub_59,1,dense_right,705.2000000001863,img/object-9_120-levels_1D/object9F0Level77F1Level40.png,p,exemplar_display,96,138326,dense_right,p,3,True,78,-26.0,26.0
sub_59,1,dense_right,700.2000000001863,img/object-9_120-levels_1D/object9F0Level29F1Level40.png,p,exemplar_display,98,140831,dense_right,p,3,True,30,-48.0,48.0
sub_59,1,dense_right,757.9000000003725,img/object-9_120-levels_1D/object9F0Level29F1Level40.png,q,exemplar_display,100,143354,dense_right,q,3,True,30,0.0,0.0
sub_59,1,dense_right,913.0999999996275,img/object-9_120-levels_1D/object9F0Level103F1Level40.png,p,exemplar_display,102,145858,dense_right,p,3,True,104,74.0,74.0
sub_59,1,dense_right,1522.2000000001863,img/object-9_120-levels_1D/object9F0Level89F1Level40.png,p,exemplar_display,104,148363,dense_right,p,3,True,90,-14.0,14.0
sub_59,1,dense_right,,img/object-9_120-levels_1D/object9F0Level89F1Level40.png,,exemplar_display,2,21970,dense_right,q,4,,90,0.0,0.0
sub_59,1,dense_right,915.0,img/object-9_120-levels_1D/object9F0Level75F1Level40.png,p,exemplar_display,4,24499,dense_right,p,4,True,76,-14.0,14.0
sub_59,1,dense_right,714.7000000001863,img/object-9_120-levels_1D/object9F0Level45F1Level40.png,p,exemplar_display,6,27039,dense_right,p,4,True,46,-30.0,30.0
sub_59,1,dense_right,755.0,img/object-9_120-levels_1D/object9F0Level73F1Level40.png,p,exemplar_display,8,29559,dense_right,p,4,True,74,28.0,28.0
sub_59,1,dense_right,1150.8999999994412,img/object-9_120-levels_1D/object9F0Level73F1Level40.png,q,exemplar_display,10,32065,dense_right,q,4,True,74,0.0,0.0
sub_59,1,dense_right,567.2999999998137,img/object-9_120-levels_1D/object9F0Level37F1Level40.png,p,exemplar_display,12,34570,dense_right,p,4,True,38,-36.0,36.0
sub_59,1,dense_right,722.9000000003725,img/object-9_120-levels_1D/object9F0Level89F1Level40.png,p,exemplar_display,14,37074,dense_right,p,4,True,90,52.0,52.0
sub_59,1,dense_right,792.7999999998137,img/object-9_120-levels_1D/object9F0Level89F1Level40.png,q,exemplar_display,16,39580,dense_right,q,4,True,90,0.0,0.0
sub_59,1,dense_right,1268.6000000005588,img/object-9_120-levels_1D/object9F0Level29F1Level40.png,p,exemplar_display,18,42085,dense_right,p,4,True,30,-60.0,60.0
sub_59,1,dense_right,712.3999999994412,img/object-9_120-levels_1D/object9F0Level69F1Level40.png,p,exemplar_display,20,44590,dense_right,p,4,True,70,40.0,40.0
sub_59,1,dense_right,856.4000000003725,img/object-9_120-levels_1D/object9F0Level109F1Level40.png,p,exemplar_display,22,47095,dense_right,p,4,True,110,40.0,40.0
sub_59,1,dense_right,691.2999999998137,img/object-9_120-levels_1D/object9F0Level109F1Level40.png,q,exemplar_display,24,49618,dense_right,q,4,True,110,0.0,0.0
sub_59,1,dense_right,973.6000000005588,img/object-9_120-levels_1D/object9F0Level93F1Level40.png,q,exemplar_display,26,52123,dense_right,p,4,False,94,-16.0,16.0
sub_59,1,dense_right,1375.8999999994412,img/object-9_120-levels_1D/object9F0Level105F1Level40.png,p,exemplar_display,28,54629,dense_right,p,4,True,106,12.0,12.0
sub_59,1,dense_right,648.2000000001863,img/object-9_120-levels_1D/object9F0Level29F1Level40.png,p,exemplar_display,30,57134,dense_right,p,4,True,30,-76.0,76.0
sub_59,1,dense_right,719.2000000001863,img/object-9_120-levels_1D/object9F0Level79F1Level40.png,p,exemplar_display,32,59639,dense_right,p,4,True,80,50.0,50.0
sub_59,1,dense_right,905.5999999996275,img/object-9_120-levels_1D/object9F0Level79F1Level40.png,q,exemplar_display,34,62144,dense_right,q,4,True,80,0.0,0.0
sub_59,1,dense_right,1362.2000000001863,img/object-9_120-levels_1D/object9F0Level85F1Level40.png,q,exemplar_display,36,64650,dense_right,p,4,False,86,6.0,6.0
sub_59,1,dense_right,732.7999999998137,img/object-9_120-levels_1D/object9F0Level103F1Level40.png,p,exemplar_display,38,67172,dense_right,p,4,True,104,18.0,18.0
sub_59,1,dense_right,1022.3000000007451,img/object-9_120-levels_1D/object9F0Level103F1Level40.png,q,exemplar_display,40,69676,dense_right,q,4,True,104,0.0,0.0
sub_59,1,dense_right,855.2000000001863,img/object-9_120-levels_1D/object9F0Level97F1Level40.png,q,exemplar_display,42,72181,dense_right,p,4,False,98,-6.0,6.0
sub_59,1,dense_right,838.0,img/object-9_120-levels_1D/object9F0Level97F1Level40.png,q,exemplar_display,44,74686,dense_right,q,4,True,98,0.0,0.0
sub_59,1,dense_right,887.2999999998137,img/object-9_120-levels_1D/object9F0Level97F1Level40.png,q,exemplar_display,46,77192,dense_right,q,4,True,98,0.0,0.0
sub_59,1,dense_right,1443.2000000001863,img/object-9_120-levels_1D/object9F0Level83F1Level40.png,q,exemplar_display,48,79697,dense_right,p,4,False,84,-14.0,14.0
sub_59,1,dense_right,779.0999999996275,img/object-9_120-levels_1D/object9F0Level79F1Level40.png,q,exemplar_display,50,82219,dense_right,p,4,False,80,-4.0,4.0
sub_59,1,dense_right,829.7000000001863,img/object-9_120-levels_1D/object9F0Level79F1Level40.png,q,exemplar_display,52,84724,dense_right,q,4,True,80,0.0,0.0
sub_59,1,dense_right,673.9000000003725,img/object-9_120-levels_1D/object9F0Level101F1Level40.png,p,exemplar_display,54,87230,dense_right,p,4,True,102,22.0,22.0
sub_59,1,dense_right,814.2999999998137,img/object-9_120-levels_1D/object9F0Level93F1Level40.png,q,exemplar_display,56,89735,dense_right,p,4,False,94,-8.0,8.0
sub_59,1,dense_right,721.2000000001863,img/object-9_120-levels_1D/object9F0Level75F1Level40.png,p,exemplar_display,58,92240,dense_right,p,4,True,76,-18.0,18.0
sub_59,1,dense_right,1137.5,img/object-9_120-levels_1D/object9F0Level75F1Level40.png,q,exemplar_display,60,94746,dense_right,q,4,True,76,0.0,0.0
sub_59,1,dense_right,738.2999999998137,img/object-9_120-levels_1D/object9F0Level97F1Level40.png,p,exemplar_display,62,97252,dense_right,p,4,True,98,22.0,22.0
sub_59,1,dense_right,1143.1000000005588,img/object-9_120-levels_1D/object9F0Level61F1Level40.png,p,exemplar_display,64,99772,dense_right,p,4,True,62,-36.0,36.0
sub_59,1,dense_right,873.9000000003725,img/object-9_120-levels_1D/object9F0Level95F1Level40.png,p,exemplar_display,66,102278,dense_right,p,4,True,96,34.0,34.0
sub_59,1,dense_right,860.0999999996275,img/object-9_120-levels_1D/object9F0Level53F1Level40.png,p,exemplar_display,68,104784,dense_right,p,4,True,54,-42.0,42.0
sub_59,1,dense_right,993.3999999994412,img/object-9_120-levels_1D/object9F0Level53F1Level40.png,q,exemplar_display,70,107290,dense_right,q,4,True,54,0.0,0.0
sub_59,1,dense_right,1010.1000000005588,img/object-9_120-levels_1D/object9F0Level89F1Level40.png,p,exemplar_display,72,109795,dense_right,p,4,True,90,36.0,36.0
sub_59,1,dense_right,791.6999999992549,img/object-9_120-levels_1D/object9F0Level85F1Level40.png,q,exemplar_display,74,112299,dense_right,p,4,False,86,-4.0,4.0
sub_59,1,dense_right,1095.6000000005588,img/object-9_120-levels_1D/object9F0Level85F1Level40.png,q,exemplar_display,76,114804,dense_right,q,4,True,86,0.0,0.0
sub_59,1,dense_right,762.0,img/object-9_120-levels_1D/object9F0Level103F1Level40.png,p,exemplar_display,78,117310,dense_right,p,4,True,104,18.0,18.0
sub_59,1,dense_right,1253.9000000003725,img/object-9_120-levels_1D/object9F0Level85F1Level40.png,p,exemplar_display,80,119831,dense_right,p,4,True,86,-18.0,18.0
sub_59,1,dense_right,812.2000000001863,img/object-9_120-levels_1D/object9F0Level87F1Level40.png,q,exemplar_display,82,122337,dense_right,p,4,False,88,2.0,2.0
sub_59,1,dense_right,1105.5999999996275,img/object-9_120-levels_1D/object9F0Level87F1Level40.png,q,exemplar_display,84,124842,dense_right,q,4,True,88,0.0,0.0
sub_59,1,dense_right,832.6999999992549,img/object-9_120-levels_1D/object9F0Level109F1Level40.png,p,exemplar_display,86,127347,dense_right,p,4,True,110,22.0,22.0
sub_59,1,dense_right,709.6000000005588,img/object-9_120-levels_1D/object9F0Level109F1Level40.png,q,exemplar_display,88,129851,dense_right,q,4,True,110,0.0,0.0
sub_59,1,dense_right,1179.9000000003725,img/object-9_120-levels_1D/object9F0Level93F1Level40.png,q,exemplar_display,90,132356,dense_right,p,4,False,94,-16.0,16.0
sub_59,1,dense_right,942.4000000003725,img/object-9_120-levels_1D/object9F0Level29F1Level40.png,p,exemplar_display,92,134862,dense_right,p,4,True,30,-64.0,64.0
sub_59,1,dense_right,982.7000000001863,img/object-9_120-levels_1D/object9F0Level81F1Level40.png,p,exemplar_display,94,137369,dense_right,p,4,True,82,52.0,52.0
sub_59,1,dense_right,1240.4000000003725,img/object-9_120-levels_1D/object9F0Level109F1Level40.png,p,exemplar_display,96,139890,dense_right,p,4,True,110,28.0,28.0
sub_59,1,dense_right,756.7000000001863,img/object-9_120-levels_1D/object9F0Level29F1Level40.png,p,exemplar_display,98,142397,dense_right,p,4,True,30,-80.0,80.0
sub_59,1,dense_right,1096.2999999998137,img/object-9_120-levels_1D/object9F0Level101F1Level40.png,p,exemplar_display,100,144908,dense_right,p,4,True,102,72.0,72.0
sub_59,1,dense_right,607.9000000003725,img/object-9_120-levels_1D/object9F0Level45F1Level40.png,p,exemplar_display,102,147412,dense_right,p,4,True,46,-56.0,56.0
sub_59,1,dense_right,825.7999999998137,img/object-9_120-levels_1D/object9F0Level45F1Level40.png,q,exemplar_display,104,149917,dense_right,q,4,True,46,0.0,0.0
sub_59,1,dense_right,,img/object-9_120-levels_1D/object9F0Level37F1Level40.png,,exemplar_display,2,20505,dense_right,p,5,,38,-8.0,8.0
sub_59,1,dense_right,880.7000000001863,img/object-9_120-levels_1D/object9F0Level97F1Level40.png,p,exemplar_display,4,23045,dense_right,p,5,True,98,60.0,60.0
sub_59,1,dense_right,981.2999999998137,img/object-9_120-levels_1D/object9F0Level77F1Level40.png,p,exemplar_display,6,25575,dense_right,p,5,True,78,-20.0,20.0
sub_59,1,dense_right,726.8000000007451,img/object-9_120-levels_1D/object9F0Level107F1Level40.png,p,exemplar_display,8,28095,dense_right,p,5,True,108,30.0,30.0
sub_59,1,dense_right,742.0,img/object-9_120-levels_1D/object9F0Level61F1Level40.png,p,exemplar_display,10,30608,dense_right,p,5,True,62,-46.0,46.0
sub_59,1,dense_right,773.8999999994412,img/object-9_120-levels_1D/object9F0Level61F1Level40.png,q,exemplar_display,12,33113,dense_right,q,5,True,62,0.0,0.0
sub_59,1,dense_right,968.6000000005588,img/object-9_120-levels_1D/object9F0Level73F1Level40.png,p,exemplar_display,14,35618,dense_right,p,5,True,74,12.0,12.0
sub_59,1,dense_right,760.9000000003725,img/object-9_120-levels_1D/object9F0Level101F1Level40.png,p,exemplar_display,16,38123,dense_right,p,5,True,102,28.0,28.0
sub_59,1,dense_right,627.9000000003725,img/object-9_120-levels_1D/object9F0Level77F1Level40.png,p,exemplar_display,18,40628,dense_right,p,5,True,78,-24.0,24.0
sub_59,1,dense_right,1284.4000000003725,img/object-9_120-levels_1D/object9F0Level83F1Level40.png,p,exemplar_display,20,43133,dense_right,p,5,True,84,6.0,6.0
sub_59,1,dense_right,901.7999999998137,img/object-9_120-levels_1D/object9F0Level91F1Level40.png,q,exemplar_display,22,45639,dense_right,p,5,False,92,8.0,8.0
sub_59,1,dense_right,613.2999999998137,img/object-9_120-levels_1D/object9F0Level85F1Level40.png,q,exemplar_display,24,48143,dense_right,p,5,False,86,-6.0,6.0
sub_59,1,dense_right,899.2999999998137,img/object-9_120-levels_1D/object9F0Level85F1Level40.png,q,exemplar_display,26,50649,dense_right,q,5,True,86,0.0,0.0
sub_59,1,dense_right,680.5,img/object-9_120-levels_1D/object9F0Level75F1Level40.png,p,exemplar_display,28,53154,dense_right,p,5,True,76,-10.0,10.0
sub_59,1,dense_right,901.0,img/object-9_120-levels_1D/object9F0Level109F1Level40.png,p,exemplar_display,30,55657,dense_right,p,5,True,110,34.0,34.0
sub_59,1,dense_right,783.7000000001863,img/object-9_120-levels_1D/object9F0Level69F1Level40.png,p,exemplar_display,32,58180,dense_right,p,5,True,70,-40.0,40.0
sub_59,1,dense_right,989.0,img/object-9_120-levels_1D/object9F0Level83F1Level40.png,p,exemplar_display,34,60685,dense_right,p,5,True,84,14.0,14.0
sub_59,1,dense_right,728.2000000001863,img/object-9_120-levels_1D/object9F0Level107F1Level40.png,p,exemplar_display,36,63191,dense_right,p,5,True,108,24.0,24.0
sub_59,1,dense_right,831.5999999996275,img/object-9_120-levels_1D/object9F0Level107F1Level40.png,q,exemplar_display,38,65698,dense_right,q,5,True,108,0.0,0.0
sub_59,1,dense_right,837.0999999996275,img/object-9_120-levels_1D/object9F0Level83F1Level40.png,p,exemplar_display,40,68202,dense_right,p,5,True,84,-24.0,24.0
sub_59,1,dense_right,649.3999999994412,img/object-9_120-levels_1D/object9F0Level109F1Level40.png,p,exemplar_display,42,70707,dense_right,p,5,True,110,26.0,26.0
sub_59,1,dense_right,841.3999999994412,img/object-9_120-levels_1D/object9F0Level103F1Level40.png,q,exemplar_display,44,73214,dense_right,p,5,False,104,-6.0,6.0
sub_59,1,dense_right,573.7000000001863,img/object-9_120-levels_1D/object9F0Level45F1Level40.png,p,exemplar_display,46,75719,dense_right,p,5,True,46,-58.0,58.0
sub_59,1,dense_right,1347.4000000003725,img/object-9_120-levels_1D/object9F0Level79F1Level40.png,p,exemplar_display,48,78224,dense_right,p,5,True,80,34.0,34.0
sub_59,1,dense_right,611.4000000003725,img/object-9_120-levels_1D/object9F0Level107F1Level40.png,p,exemplar_display,50,80728,dense_right,p,5,True,108,28.0,28.0
sub_59,1,dense_right,661.4000000003725,img/object-9_120-levels_1D/object9F0Level89F1Level40.png,q,exemplar_display,52,83234,dense_right,p,5,False,90,-18.0,18.0
sub_59,1,dense_right,933.8999999994412,img/object-9_120-levels_1D/object9F0Level37F1Level40.png,p,exemplar_display,54,85739,dense_right,p,5,True,38,-52.0,52.0
sub_59,1,dense_right,1090.7999999998137,img/object-9_120-levels_1D/object9F0Level83F1Level40.png,p,exemplar_display,56,88243,dense_right,p,5,True,84,46.0,46.0
sub_59,1,dense_right,606.5,img/object-9_120-levels_1D/object9F0Level83F1Level40.png,q,exemplar_display,58,90749,dense_right,q,5,True,84,0.0,0.0
sub_59,1,dense_right,834.5999999996275,img/object-9_120-levels_1D/object9F0Level89F1Level40.png,p,exemplar_display,60,93254,dense_right,p,5,True,90,6.0,6.0
sub_59,1,dense_right,909.9000000003725,img/object-9_120-levels_1D/object9F0Level53F1Level40.png,p,exemplar_display,62,95760,dense_right,p,5,True,54,-36.0,36.0
sub_59,1,dense_right,614.7000000001863,img/object-9_120-levels_1D/object9F0Level97F1Level40.png,p,exemplar_display,64,98266,dense_right,p,5,True,98,44.0,44.0
sub_59,1,dense_right,791.4000000003725,img/object-9_120-levels_1D/object9F0Level97F1Level40.png,q,exemplar_display,66,100771,dense_right,q,5,True,98,0.0,0.0
sub_59,1,dense_right,558.7000000001863,img/object-9_120-levels_1D/object9F0Level73F1Level40.png,p,exemplar_display,68,103277,dense_right,p,5,True,74,-24.0,24.0
sub_59,1,dense_right,898.9000000003725,img/object-9_120-levels_1D/object9F0Level97F1Level40.png,p,exemplar_display,70,105781,dense_right,p,5,True,98,24.0,24.0
sub_59,1,dense_right,1160.4000000003725,img/object-9_120-levels_1D/object9F0Level75F1Level40.png,p,exemplar_display,72,108286,dense_right,p,5,True,76,-22.0,22.0
sub_59,1,dense_right,713.6999999992549,img/object-9_120-levels_1D/object9F0Level87F1Level40.png,q,exemplar_display,74,110807,dense_right,p,5,False,88,12.0,12.0
sub_59,1,dense_right,779.5,img/object-9_120-levels_1D/object9F0Level91F1Level40.png,q,exemplar_display,76,113313,dense_right,p,5,False,92,4.0,4.0
sub_59,1,dense_right,688.6999999992549,img/object-9_120-levels_1D/object9F0Level73F1Level40.png,p,exemplar_display,78,115818,dense_right,p,5,True,74,-18.0,18.0
sub_59,1,dense_right,1253.800000000745,img/object-9_120-levels_1D/object9F0Level73F1Level40.png,q,exemplar_display,80,118323,dense_right,q,5,True,74,0.0,0.0
sub_59,1,dense_right,483.0,img/object-9_120-levels_1D/object9F0Level45F1Level40.png,p,exemplar_display,82,120827,dense_right,p,5,True,46,-28.0,28.0
sub_59,1,dense_right,756.5,img/object-9_120-levels_1D/object9F0Level109F1Level40.png,p,exemplar_display,84,123332,dense_right,p,5,True,110,64.0,64.0
sub_59,1,dense_right,1090.7000000001863,img/object-9_120-levels_1D/object9F0Level91F1Level40.png,q,exemplar_display,86,125852,dense_right,p,5,False,92,-18.0,18.0
sub_59,1,dense_right,642.5,img/object-9_120-levels_1D/object9F0Level91F1Level40.png,q,exemplar_display,88,128374,dense_right,q,5,True,92,0.0,0.0
sub_59,1,dense_right,814.7999999998137,img/object-9_120-levels_1D/object9F0Level71F1Level40.png,p,exemplar_display,90,130879,dense_right,p,5,True,72,-20.0,20.0
sub_59,1,dense_right,706.7999999998137,img/object-9_120-levels_1D/object9F0Level71F1Level40.png,q,exemplar_display,92,133384,dense_right,q,5,True,72,0.0,0.0
sub_59,1,dense_right,627.3000000007451,img/object-9_120-levels_1D/object9F0Level93F1Level40.png,p,exemplar_display,94,135890,dense_right,p,5,True,94,22.0,22.0
sub_59,1,dense_right,680.1999999992549,img/object-9_120-levels_1D/object9F0Level91F1Level40.png,q,exemplar_display,96,138395,dense_right,p,5,False,92,-2.0,2.0
sub_59,1,dense_right,1254.5,img/object-9_120-levels_1D/object9F0Level99F1Level40.png,p,exemplar_display,98,140900,dense_right,p,5,True,100,8.0,8.0
sub_59,1,dense_right,849.2999999998137,img/object-9_120-levels_1D/object9F0Level81F1Level40.png,p,exemplar_display,100,143406,dense_right,p,5,True,82,-18.0,18.0
sub_59,1,dense_right,589.8999999994412,img/object-9_120-levels_1D/object9F0Level81F1Level40.png,q,exemplar_display,102,145912,dense_right,q,5,True,82,0.0,0.0
sub_59,1,dense_right,581.7999999998137,img/object-9_120-levels_1D/object9F0Level53F1Level40.png,p,exemplar_display,104,148417,dense_right,p,5,True,54,-28.0,28.0
sub_60,1,dense_right,,img/object-9_120-levels_1D/object9F0Level107F1Level40.png,,exemplar_display,2,6629,dense_right,,1,,108,,
sub_60,1,dense_right,1457.0,img/object-9_120-levels_1D/object9F0Level93F1Level40.png,q,exemplar_display,4,9160,dense_right,p,1,False,94,-14.0,14.0
sub_60,1,dense_right,,img/object-9_120-levels_1D/object9F0Level85F1Level40.png,,exemplar_display,6,12671,dense_right,p,1,False,86,-8.0,8.0
sub_60,1,dense_right,904.1999999284744,img/object-9_120-levels_1D/object9F0Level85F1Level40.png,p,exemplar_display,8,15192,dense_right,q,1,False,86,0.0,0.0
sub_60,1,dense_right,2856.899999976158,img/object-9_120-levels_1D/object9F0Level93F1Level40.png,p,exemplar_display,10,18554,dense_right,p,1,True,94,8.0,8.0
sub_60,1,dense_right,1162.0,img/object-9_120-levels_1D/object9F0Level105F1Level40.png,q,exemplar_display,12,21074,dense_right,p,1,False,106,12.0,12.0
sub_60,1,dense_right,941.4000000953674,img/object-9_120-levels_1D/object9F0Level61F1Level40.png,p,exemplar_display,14,23582,dense_right,p,1,True,62,-44.0,44.0
sub_60,1,dense_right,1258.5999999046326,img/object-9_120-levels_1D/object9F0Level101F1Level40.png,q,exemplar_display,16,26099,dense_right,p,1,False,102,40.0,40.0
sub_60,1,dense_right,1414.1999999284744,img/object-9_120-levels_1D/object9F0Level95F1Level40.png,p,exemplar_display,18,28630,dense_right,p,1,True,96,-6.0,6.0
sub_60,1,dense_right,1735.1000000238419,img/object-9_120-levels_1D/object9F0Level95F1Level40.png,q,exemplar_display,20,31140,dense_right,q,1,True,96,0.0,0.0
sub_60,1,dense_right,1420.9000000953674,img/object-9_120-levels_1D/object9F0Level45F1Level40.png,p,exemplar_display,22,33654,dense_right,p,1,True,46,-50.0,50.0
sub_60,1,dense_right,963.1000000238419,img/object-9_120-levels_1D/object9F0Level45F1Level40.png,q,exemplar_display,24,36160,dense_right,q,1,True,46,0.0,0.0
sub_60,1,dense_right,682.5,img/object-9_120-levels_1D/object9F0Level71F1Level40.png,p,exemplar_display,26,38666,dense_right,p,1,True,72,26.0,26.0
sub_60,1,dense_right,1193.0,img/object-9_120-levels_1D/object9F0Level71F1Level40.png,q,exemplar_display,28,41173,dense_right,q,1,True,72,0.0,0.0
sub_60,1,dense_right,1285.2000000476837,img/object-9_120-levels_1D/object9F0Level37F1Level40.png,p,exemplar_display,30,43679,dense_right,p,1,True,38,-34.0,34.0
sub_60,1,dense_right,1069.3000000715256,img/object-9_120-levels_1D/object9F0Level79F1Level40.png,q,exemplar_display,32,46184,dense_right,p,1,False,80,42.0,42.0
sub_60,1,dense_right,1302.0999999046326,img/object-9_120-levels_1D/object9F0Level79F1Level40.png,p,exemplar_display,34,48689,dense_right,q,1,False,80,0.0,0.0
sub_60,1,dense_right,907.0,img/object-9_120-levels_1D/object9F0Level77F1Level40.png,q,exemplar_display,36,51194,dense_right,p,1,False,78,-2.0,2.0
sub_60,1,dense_right,1072.1999999284744,img/object-9_120-levels_1D/object9F0Level75F1Level40.png,q,exemplar_display,38,53700,dense_right,p,1,False,76,-2.0,2.0
sub_60,1,dense_right,790.8999999761581,img/object-9_120-levels_1D/object9F0Level107F1Level40.png,p,exemplar_display,40,56205,dense_right,p,1,True,108,32.0,32.0
sub_60,1,dense_right,1704.2000000476837,img/object-9_120-levels_1D/object9F0Level95F1Level40.png,p,exemplar_display,42,58717,dense_right,p,1,True,96,-12.0,12.0
sub_60,1,dense_right,1111.1000000238419,img/object-9_120-levels_1D/object9F0Level77F1Level40.png,p,exemplar_display,44,61240,dense_right,p,1,True,78,-18.0,18.0
sub_60,1,dense_right,1051.1000000238419,img/object-9_120-levels_1D/object9F0Level37F1Level40.png,q,exemplar_display,46,63746,dense_right,p,1,False,38,-40.0,40.0
sub_60,1,dense_right,1944.6999999284744,img/object-9_120-levels_1D/object9F0Level53F1Level40.png,q,exemplar_display,48,66251,dense_right,p,1,False,54,16.0,16.0
sub_60,1,dense_right,1269.2000000476837,img/object-9_120-levels_1D/object9F0Level89F1Level40.png,p,exemplar_display,50,68756,dense_right,p,1,True,90,36.0,36.0
sub_60,1,dense_right,1441.6000000238419,img/object-9_120-levels_1D/object9F0Level83F1Level40.png,q,exemplar_display,52,71262,dense_right,p,1,False,84,-6.0,6.0
sub_60,1,dense_right,1083.1000000238419,img/object-9_120-levels_1D/object9F0Level71F1Level40.png,p,exemplar_display,54,73789,dense_right,p,1,True,72,-12.0,12.0
sub_60,1,dense_right,1297.2999999523163,img/object-9_120-levels_1D/object9F0Level97F1Level40.png,p,exemplar_display,56,76293,dense_right,p,1,True,98,26.0,26.0
sub_60,1,dense_right,1148.8999999761581,img/object-9_120-levels_1D/object9F0Level97F1Level40.png,q,exemplar_display,58,78798,dense_right,q,1,True,98,0.0,0.0
sub_60,1,dense_right,1561.6000000238419,img/object-9_120-levels_1D/object9F0Level89F1Level40.png,q,exemplar_display,60,81302,dense_right,p,1,False,90,-8.0,8.0
sub_60,1,dense_right,888.2999999523163,img/object-9_120-levels_1D/object9F0Level45F1Level40.png,p,exemplar_display,62,83807,dense_right,p,1,True,46,-44.0,44.0
sub_60,1,dense_right,1528.7000000476837,img/object-9_120-levels_1D/object9F0Level77F1Level40.png,q,exemplar_display,64,86311,dense_right,p,1,False,78,32.0,32.0
sub_60,1,dense_right,1359.0,img/object-9_120-levels_1D/object9F0Level77F1Level40.png,p,exemplar_display,66,88830,dense_right,q,1,False,78,0.0,0.0
sub_60,1,dense_right,1652.6000000238419,img/object-9_120-levels_1D/object9F0Level93F1Level40.png,p,exemplar_display,68,91337,dense_right,p,1,True,94,16.0,16.0
sub_60,1,dense_right,1368.2999999523163,img/object-9_120-levels_1D/object9F0Level77F1Level40.png,q,exemplar_display,70,93844,dense_right,p,1,False,78,-16.0,16.0
sub_60,1,dense_right,1614.5,img/object-9_120-levels_1D/object9F0Level81F1Level40.png,q,exemplar_display,72,96350,dense_right,p,1,False,82,4.0,4.0
sub_60,1,dense_right,1558.0,img/object-9_120-levels_1D/object9F0Level61F1Level40.png,p,exemplar_display,74,98856,dense_right,p,1,True,62,-20.0,20.0
sub_60,1,dense_right,1357.6000000238419,img/object-9_120-levels_1D/object9F0Level103F1Level40.png,p,exemplar_display,76,101359,dense_right,p,1,True,104,42.0,42.0
sub_60,1,dense_right,1390.0,img/object-9_120-levels_1D/object9F0Level29F1Level40.png,p,exemplar_display,78,103866,dense_right,p,1,True,30,-74.0,74.0
sub_60,1,dense_right,801.5,img/object-9_120-levels_1D/object9F0Level107F1Level40.png,p,exemplar_display,80,106371,dense_right,p,1,True,108,78.0,78.0
sub_60,1,dense_right,1173.6000000238419,img/object-9_120-levels_1D/object9F0Level89F1Level40.png,p,exemplar_display,82,108875,dense_right,p,1,True,90,-18.0,18.0
sub_60,1,dense_right,751.0,img/object-9_120-levels_1D/object9F0Level87F1Level40.png,q,exemplar_display,84,111388,dense_right,p,1,False,88,-2.0,2.0
sub_60,1,dense_right,1183.0,img/object-9_120-levels_1D/object9F0Level85F1Level40.png,q,exemplar_display,86,113895,dense_right,p,1,False,86,-2.0,2.0
sub_60,1,dense_right,680.1000000238419,img/object-9_120-levels_1D/object9F0Level89F1Level40.png,q,exemplar_display,88,116401,dense_right,p,1,False,90,4.0,4.0
sub_60,1,dense_right,1055.3999999761581,img/object-9_120-levels_1D/object9F0Level89F1Level40.png,q,exemplar_display,90,118923,dense_right,q,1,True,90,0.0,0.0
sub_60,1,dense_right,1287.6000000238419,img/object-9_120-levels_1D/object9F0Level73F1Level40.png,p,exemplar_display,92,121429,dense_right,p,1,True,74,-16.0,16.0
sub_60,1,dense_right,1137.0,img/object-9_120-levels_1D/object9F0Level73F1Level40.png,q,exemplar_display,94,123943,dense_right,q,1,True,74,0.0,0.0
sub_60,1,dense_right,1207.5,img/object-9_120-levels_1D/object9F0Level79F1Level40.png,q,exemplar_display,96,126450,dense_right,p,1,False,80,6.0,6.0
sub_60,1,dense_right,972.6000000238419,img/object-9_120-levels_1D/object9F0Level69F1Level40.png,p,exemplar_display,98,128954,dense_right,p,1,True,70,-10.0,10.0
sub_60,1,dense_right,1072.0,img/object-9_120-levels_1D/object9F0Level75F1Level40.png,q,exemplar_display,100,131459,dense_right,p,1,False,76,6.0,6.0
sub_60,1,dense_right,1277.6000000238419,img/object-9_120-levels_1D/object9F0Level87F1Level40.png,p,exemplar_display,102,133964,dense_right,p,1,True,88,12.0,12.0
sub_60,1,dense_right,1343.8999999761581,img/object-9_120-levels_1D/object9F0Level95F1Level40.png,p,exemplar_display,104,136468,dense_right,p,1,True,96,8.0,8.0
sub_60,1,dense_right,,img/object-9_120-levels_1D/object9F0Level53F1Level40.png,,exemplar_display,2,6249,dense_right,p,2,,54,-42.0,42.0
sub_60,1,dense_right,910.5999999046326,img/object-9_120-levels_1D/object9F0Level69F1Level40.png,p,exemplar_display,4,8782,dense_right,p,2,True,70,16.0,16.0
sub_60,1,dense_right,850.3000000715256,img/object-9_120-levels_1D/object9F0Level97F1Level40.png,p,exemplar_display,6,11293,dense_right,p,2,True,98,28.0,28.0
sub_60,1,dense_right,958.9000000953674,img/object-9_120-levels_1D/object9F0Level37F1Level40.png,p,exemplar_display,8,13804,dense_right,p,2,True,38,-60.0,60.0
sub_60,1,dense_right,1161.2999999523163,img/object-9_120-levels_1D/object9F0Level73F1Level40.png,p,exemplar_display,10,16331,dense_right,p,2,True,74,36.0,36.0
sub_60,1,dense_right,867.7000000476837,img/object-9_120-levels_1D/object9F0Level99F1Level40.png,p,exemplar_display,12,18842,dense_right,p,2,True,100,26.0,26.0
sub_60,1,dense_right,714.7000000476837,img/object-9_120-levels_1D/object9F0Level53F1Level40.png,p,exemplar_display,14,21354,dense_right,p,2,True,54,-46.0,46.0
sub_60,1,dense_right,840.8999999761581,img/object-9_120-levels_1D/object9F0Level81F1Level40.png,p,exemplar_display,16,23862,dense_right,p,2,True,82,28.0,28.0
sub_60,1,dense_right,786.3999999761581,img/object-9_120-levels_1D/object9F0Level45F1Level40.png,p,exemplar_display,18,26385,dense_right,p,2,True,46,-36.0,36.0
sub_60,1,dense_right,1143.8999999761581,img/object-9_120-levels_1D/object9F0Level91F1Level40.png,p,exemplar_display,20,28908,dense_right,p,2,True,92,46.0,46.0
sub_60,1,dense_right,1091.0,img/object-9_120-levels_1D/object9F0Level105F1Level40.png,q,exemplar_display,22,31415,dense_right,p,2,False,106,14.0,14.0
sub_60,1,dense_right,1138.0,img/object-9_120-levels_1D/object9F0Level105F1Level40.png,p,exemplar_display,24,33920,dense_right,q,2,False,106,0.0,0.0
sub_60,1,dense_right,719.8999999761581,img/object-9_120-levels_1D/object9F0Level93F1Level40.png,p,exemplar_display,26,36426,dense_right,p,2,True,94,-12.0,12.0
sub_60,1,dense_right,1131.8999999761581,img/object-9_120-levels_1D/object9F0Level77F1Level40.png,q,exemplar_display,28,38931,dense_right,p,2,False,78,-16.0,16.0
sub_60,1,dense_right,925.2000000476837,img/object-9_120-levels_1D/object9F0Level97F1Level40.png,p,exemplar_display,30,41435,dense_right,p,2,True,98,20.0,20.0
sub_60,1,dense_right,1024.8999999761581,img/object-9_120-levels_1D/object9F0Level89F1Level40.png,p,exemplar_display,32,43941,dense_right,p,2,True,90,-8.0,8.0
sub_60,1,dense_right,828.6999999284744,img/object-9_120-levels_1D/object9F0Level87F1Level40.png,q,exemplar_display,34,46449,dense_right,p,2,False,88,-2.0,2.0
sub_60,1,dense_right,741.1999999284744,img/object-9_120-levels_1D/object9F0Level87F1Level40.png,q,exemplar_display,36,48978,dense_right,q,2,True,88,0.0,0.0
sub_60,1,dense_right,794.5,img/object-9_120-levels_1D/object9F0Level73F1Level40.png,p,exemplar_display,38,51482,dense_right,p,2,True,74,-14.0,14.0
sub_60,1,dense_right,1199.5,img/object-9_120-levels_1D/object9F0Level101F1Level40.png,p,exemplar_display,40,53987,dense_right,p,2,True,102,28.0,28.0
sub_60,1,dense_right,800.1000000238419,img/object-9_120-levels_1D/object9F0Level85F1Level40.png,q,exemplar_display,42,56493,dense_right,p,2,False,86,-16.0,16.0
sub_60,1,dense_right,857.2000000476837,img/object-9_120-levels_1D/object9F0Level107F1Level40.png,p,exemplar_display,44,58998,dense_right,p,2,True,108,22.0,22.0
sub_60,1,dense_right,1136.4000000953674,img/object-9_120-levels_1D/object9F0Level107F1Level40.png,p,exemplar_display,46,61503,dense_right,q,2,False,108,0.0,0.0
sub_60,1,dense_right,547.7000000476837,img/object-9_120-levels_1D/object9F0Level91F1Level40.png,q,exemplar_display,48,64013,dense_right,p,2,False,92,-16.0,16.0
sub_60,1,dense_right,844.3000000715256,img/object-9_120-levels_1D/object9F0Level91F1Level40.png,p,exemplar_display,50,66517,dense_right,q,2,False,92,0.0,0.0
sub_60,1,dense_right,1172.8000000715256,img/object-9_120-levels_1D/object9F0Level103F1Level40.png,p,exemplar_display,52,69032,dense_right,p,2,True,104,12.0,12.0
sub_60,1,dense_right,1285.7999999523163,img/object-9_120-levels_1D/object9F0Level103F1Level40.png,p,exemplar_display,54,71537,dense_right,q,2,False,104,0.0,0.0
sub_60,1,dense_right,621.5999999046326,img/object-9_120-levels_1D/object9F0Level99F1Level40.png,q,exemplar_display,56,74043,dense_right,p,2,False,100,-4.0,4.0
sub_60,1,dense_right,730.2000000476837,img/object-9_120-levels_1D/object9F0Level29F1Level40.png,p,exemplar_display,58,76552,dense_right,p,2,True,30,-70.0,70.0
sub_60,1,dense_right,1189.8999999761581,img/object-9_120-levels_1D/object9F0Level79F1Level40.png,p,exemplar_display,60,79057,dense_right,p,2,True,80,50.0,50.0
sub_60,1,dense_right,904.6999999284744,img/object-9_120-levels_1D/object9F0Level45F1Level40.png,p,exemplar_display,62,81564,dense_right,p,2,True,46,-34.0,34.0
sub_60,1,dense_right,629.8000000715256,img/object-9_120-levels_1D/object9F0Level37F1Level40.png,q,exemplar_display,64,84070,dense_right,p,2,False,38,-8.0,8.0
sub_60,1,dense_right,555.7000000476837,img/object-9_120-levels_1D/object9F0Level37F1Level40.png,q,exemplar_display,66,86574,dense_right,q,2,True,38,0.0,0.0
sub_60,1,dense_right,725.1000000238419,img/object-9_120-levels_1D/object9F0Level77F1Level40.png,p,exemplar_display,68,89095,dense_right,p,2,True,78,40.0,40.0
sub_60,1,dense_right,1052.0,img/object-9_120-levels_1D/object9F0Level103F1Level40.png,p,exemplar_display,70,91600,dense_right,p,2,True,104,26.0,26.0
sub_60,1,dense_right,1144.0,img/object-9_120-levels_1D/object9F0Level103F1Level40.png,q,exemplar_display,72,94106,dense_right,q,2,True,104,0.0,0.0
sub_60,1,dense_right,988.5999999046326,img/object-9_120-levels_1D/object9F0Level85F1Level40.png,p,exemplar_display,74,96612,dense_right,p,2,True,86,-18.0,18.0
sub_60,1,dense_right,1328.2999999523163,img/object-9_120-levels_1D/object9F0Level85F1Level40.png,q,exemplar_display,76,99116,dense_right,q,2,True,86,0.0,0.0
sub_60,1,dense_right,1465.8999999761581,img/object-9_120-levels_1D/object9F0Level95F1Level40.png,q,exemplar_display,78,101622,dense_right,p,2,False,96,10.0,10.0
sub_60,1,dense_right,720.5,img/object-9_120-levels_1D/object9F0Level95F1Level40.png,p,exemplar_display,80,104125,dense_right,q,2,False,96,0.0,0.0
sub_60,1,dense_right,1417.1000000238419,img/object-9_120-levels_1D/object9F0Level77F1Level40.png,p,exemplar_display,82,106632,dense_right,p,2,True,78,-18.0,18.0
sub_60,1,dense_right,2043.5,img/object-9_120-levels_1D/object9F0Level77F1Level40.png,p,exemplar_display,84,109181,dense_right,q,2,False,78,0.0,0.0
sub_60,1,dense_right,1344.1999999284744,img/object-9_120-levels_1D/object9F0Level101F1Level40.png,q,exemplar_display,86,111685,dense_right,p,2,False,102,24.0,24.0
sub_60,1,dense_right,596.7000000476837,img/object-9_120-levels_1D/object9F0Level53F1Level40.png,p,exemplar_display,88,114191,dense_right,p,2,True,54,-48.0,48.0
sub_60,1,dense_right,983.2000000476837,img/object-9_120-levels_1D/object9F0Level53F1Level40.png,p,exemplar_display,90,116696,dense_right,q,2,False,54,0.0,0.0
sub_60,1,dense_right,1983.3999999761581,img/object-9_120-levels_1D/object9F0Level83F1Level40.png,q,exemplar_display,92,119201,dense_right,p,2,False,84,30.0,30.0
sub_60,1,dense_right,706.3000000715256,img/object-9_120-levels_1D/object9F0Level83F1Level40.png,p,exemplar_display,94,121707,dense_right,q,2,False,84,0.0,0.0
sub_60,1,dense_right,1261.3000000715256,img/object-9_120-levels_1D/object9F0Level69F1Level40.png,p,exemplar_display,96,124211,dense_right,p,2,True,70,-14.0,14.0
sub_60,1,dense_right,1098.5,img/object-9_120-levels_1D/object9F0Level69F1Level40.png,q,exemplar_display,98,126716,dense_right,q,2,True,70,0.0,0.0
sub_60,1,dense_right,768.0,img/object-9_120-levels_1D/object9F0Level71F1Level40.png,q,exemplar_display,100,129221,dense_right,p,2,False,72,2.0,2.0
sub_60,1,dense_right,566.8000000715256,img/object-9_120-levels_1D/object9F0Level75F1Level40.png,q,exemplar_display,102,131728,dense_right,p,2,False,76,4.0,4.0
sub_60,1,dense_right,718.3000000715256,img/object-9_120-levels_1D/object9F0Level75F1Level40.png,q,exemplar_display,104,134233,dense_right,q,2,True,76,0.0,0.0
sub_60,1,dense_right,,img/object-9_120-levels_1D/object9F0Level87F1Level40.png,,exemplar_display,2,6302,dense_right,p,3,,88,12.0,12.0
sub_60,1,dense_right,1309.3000000715256,img/object-9_120-levels_1D/object9F0Level97F1Level40.png,p,exemplar_display,4,8821,dense_right,p,3,True,98,10.0,10.0
sub_60,1,dense_right,1072.6999999284744,img/object-9_120-levels_1D/object9F0Level97F1Level40.png,q,exemplar_display,6,11347,dense_right,q,3,True,98,0.0,0.0
sub_60,1,dense_right,868.6000000238419,img/object-9_120-levels_1D/object9F0Level79F1Level40.png,p,exemplar_display,8,13866,dense_right,p,3,True,80,-18.0,18.0
sub_60,1,dense_right,1390.7999999523163,img/object-9_120-levels_1D/object9F0Level87F1Level40.png,p,exemplar_display,10,16388,dense_right,p,3,True,88,8.0,8.0
sub_60,1,dense_right,1009.3000000715256,img/object-9_120-levels_1D/object9F0Level75F1Level40.png,p,exemplar_display,12,18910,dense_right,p,3,True,76,-12.0,12.0
sub_60,1,dense_right,871.3999999761581,img/object-9_120-levels_1D/object9F0Level99F1Level40.png,p,exemplar_display,14,21430,dense_right,p,3,True,100,24.0,24.0
sub_60,1,dense_right,821.0,img/object-9_120-levels_1D/object9F0Level61F1Level40.png,p,exemplar_display,16,23951,dense_right,p,3,True,62,-38.0,38.0
sub_60,1,dense_right,1242.6000000238419,img/object-9_120-levels_1D/object9F0Level91F1Level40.png,p,exemplar_display,18,26468,dense_right,p,3,True,92,30.0,30.0
sub_60,1,dense_right,990.6000000238419,img/object-9_120-levels_1D/object9F0Level71F1Level40.png,p,exemplar_display,20,29002,dense_right,p,3,True,72,-20.0,20.0
sub_60,1,dense_right,861.3999999761581,img/object-9_120-levels_1D/object9F0Level85F1Level40.png,p,exemplar_display,22,31505,dense_right,p,3,True,86,14.0,14.0
sub_60,1,dense_right,838.2999999523163,img/object-9_120-levels_1D/object9F0Level61F1Level40.png,p,exemplar_display,24,34012,dense_right,p,3,True,62,-24.0,24.0
sub_60,1,dense_right,1078.9000000953674,img/object-9_120-levels_1D/object9F0Level109F1Level40.png,p,exemplar_display,26,36517,dense_right,p,3,True,110,48.0,48.0
sub_60,1,dense_right,858.7000000476837,img/object-9_120-levels_1D/object9F0Level103F1Level40.png,q,exemplar_display,28,39021,dense_right,p,3,False,104,-6.0,6.0
sub_60,1,dense_right,622.2999999523163,img/object-9_120-levels_1D/object9F0Level109F1Level40.png,q,exemplar_display,30,41526,dense_right,p,3,False,110,6.0,6.0
sub_60,1,dense_right,614.0,img/object-9_120-levels_1D/object9F0Level101F1Level40.png,q,exemplar_display,32,44032,dense_right,p,3,False,102,-8.0,8.0
sub_60,1,dense_right,774.3999999761581,img/object-9_120-levels_1D/object9F0Level95F1Level40.png,q,exemplar_display,34,46537,dense_right,p,3,False,96,-6.0,6.0
sub_60,1,dense_right,804.5,img/object-9_120-levels_1D/object9F0Level69F1Level40.png,p,exemplar_display,36,49058,dense_right,p,3,True,70,-26.0,26.0
