prolific_id,experiment,counterbalancing,rt,stimulus,response,trial_stage,trial_index,time_elapsed,cb_condition,correct_response,session,correct,stim_val,dist_from_prev,dist_abs_from_prev
sub_58,1,dense_right,2283.5,img/object-9_120-levels_1D/object9F0Level61F1Level40.png,q,exemplar_display,2,11496,dense_right,,1,,62,,
sub_58,1,dense_right,2231.5999999940395,img/object-9_120-levels_1D/object9F0Level95F1Level40.png,q,exemplar_display,4,14232,dense_right,p,1,False,96,34.0,34.0
sub_58,1,dense_right,1879.2000000029802,img/object-9_120-levels_1D/object9F0Level101F1Level40.png,q,exemplar_display,6,16738,dense_right,p,1,False,102,6.0,6.0
sub_58,1,dense_right,1674.9000000059605,img/object-9_120-levels_1D/object9F0Level87F1Level40.png,q,exemplar_display,8,19246,dense_right,p,1,False,88,-14.0,14.0
sub_58,1,dense_right,1751.7999999970198,img/object-9_120-levels_1D/object9F0Level81F1Level40.png,q,exemplar_display,10,21756,dense_right,p,1,False,82,-6.0,6.0
sub_58,1,dense_right,1057.2000000029802,img/object-9_120-levels_1D/object9F0Level69F1Level40.png,p,exemplar_display,12,24261,dense_right,p,1,True,70,-12.0,12.0
sub_58,1,dense_right,1303.7999999970198,img/object-9_120-levels_1D/object9F0Level79F1Level40.png,p,exemplar_display,14,26769,dense_right,p,1,True,80,10.0,10.0
sub_58,1,dense_right,1331.7000000029802,img/object-9_120-levels_1D/object9F0Level79F1Level40.png,q,exemplar_display,16,29277,dense_right,q,1,True,80,0.0,0.0
sub_58,1,dense_right,624.2999999970198,img/object-9_120-levels_1D/object9F0Level75F1Level40.png,q,exemplar_display,18,31791,dense_right,p,1,False,76,-4.0,4.0
sub_58,1,dense_right,822.6000000089407,img/object-9_120-levels_1D/object9F0Level89F1Level40.png,q,exemplar_display,20,34299,dense_right,p,1,False,90,14.0,14.0
sub_58,1,dense_right,826.5,img/object-9_120-levels_1D/object9F0Level77F1Level40.png,q,exemplar_display,22,36808,dense_right,p,1,False,78,-12.0,12.0
sub_58,1,dense_right,629.4000000059605,img/object-9_120-levels_1D/object9F0Level85F1Level40.png,q,exemplar_display,24,39316,dense_right,p,1,False,86,8.0,8.0
sub_58,1,dense_right,922.2000000029802,img/object-9_120-levels_1D/object9F0Level45F1Level40.png,p,exemplar_display,26,41822,dense_right,p,1,True,46,-40.0,40.0
sub_58,1,dense_right,782.2000000029802,img/object-9_120-levels_1D/object9F0Level107F1Level40.png,q,exemplar_display,28,44330,dense_right,p,1,False,108,62.0,62.0
sub_58,1,dense_right,650.0,img/object-9_120-levels_1D/object9F0Level95F1Level40.png,q,exemplar_display,30,46837,dense_right,p,1,False,96,-12.0,12.0
sub_58,1,dense_right,1308.5,img/object-9_120-levels_1D/object9F0Level93F1Level40.png,q,exemplar_display,32,49345,dense_right,p,1,False,94,-2.0,2.0
sub_58,1,dense_right,1015.6999999880791,img/object-9_120-levels_1D/object9F0Level73F1Level40.png,p,exemplar_display,34,51858,dense_right,p,1,True,74,-20.0,20.0
sub_58,1,dense_right,1057.300000011921,img/object-9_120-levels_1D/object9F0Level73F1Level40.png,q,exemplar_display,36,54366,dense_right,q,1,True,74,0.0,0.0
sub_58,1,dense_right,829.5999999940395,img/object-9_120-levels_1D/object9F0Level45F1Level40.png,p,exemplar_display,38,56873,dense_right,p,1,True,46,-28.0,28.0
sub_58,1,dense_right,657.3999999910593,img/object-9_120-levels_1D/object9F0Level29F1Level40.png,p,exemplar_display,40,59381,dense_right,p,1,True,30,-16.0,16.0
sub_58,1,dense_right,1030.4000000059605,img/object-9_120-levels_1D/object9F0Level53F1Level40.png,q,exemplar_display,42,61889,dense_right,p,1,False,54,24.0,24.0
sub_58,1,dense_right,1594.2000000029802,img/object-9_120-levels_1D/object9F0Level53F1Level40.png,q,exemplar_display,44,64397,dense_right,q,1,True,54,0.0,0.0
sub_58,1,dense_right,670.6999999880791,img/object-9_120-levels_1D/object9F0Level93F1Level40.png,p,exemplar_display,46,66904,dense_right,p,1,True,94,40.0,40.0
sub_58,1,dense_right,877.7000000029802,img/object-9_120-levels_1D/object9F0Level95F1Level40.png,q,exemplar_display,48,69412,dense_right,p,1,False,96,2.0,2.0
sub_58,1,dense_right,496.69999998807907,img/object-9_120-levels_1D/object9F0Level95F1Level40.png,q,exemplar_display,50,71926,dense_right,q,1,True,96,0.0,0.0
sub_58,1,dense_right,462.70000000298023,img/object-9_120-levels_1D/object9F0Level95F1Level40.png,q,exemplar_display,52,74433,dense_right,q,1,True,96,0.0,0.0
sub_58,1,dense_right,825.5999999940395,img/object-9_120-levels_1D/object9F0Level75F1Level40.png,p,exemplar_display,54,76941,dense_right,p,1,True,76,-20.0,20.0
sub_58,1,dense_right,877.7000000029802,img/object-9_120-levels_1D/object9F0Level75F1Level40.png,p,exemplar_display,56,79452,dense_right,q,1,False,76,0.0,0.0
sub_58,1,dense_right,1020.2999999970198,img/object-9_120-levels_1D/object9F0Level75F1Level40.png,q,exemplar_display,58,81962,dense_right,q,1,True,76,0.0,0.0
sub_58,1,dense_right,880.3000000119209,img/object-9_120-levels_1D/object9F0Level61F1Level40.png,p,exemplar_display,60,84470,dense_right,p,1,True,62,-14.0,14.0
sub_58,1,dense_right,1037.2999999970198,img/object-9_120-levels_1D/object9F0Level101F1Level40.png,p,exemplar_display,62,86976,dense_right,p,1,True,102,40.0,40.0
sub_58,1,dense_right,1041.4000000059605,img/object-9_120-levels_1D/object9F0Level83F1Level40.png,q,exemplar_display,64,89485,dense_right,p,1,False,84,-18.0,18.0
sub_58,1,dense_right,765.2999999970198,img/object-9_120-levels_1D/object9F0Level37F1Level40.png,p,exemplar_display,66,91993,dense_right,p,1,True,38,-46.0,46.0
sub_58,1,dense_right,913.2000000029802,img/object-9_120-levels_1D/object9F0Level37F1Level40.png,p,exemplar_display,68,94500,dense_right,q,1,False,38,0.0,0.0
sub_58,1,dense_right,646.9000000059605,img/object-9_120-levels_1D/object9F0Level87F1Level40.png,p,exemplar_display,70,97008,dense_right,p,1,True,88,50.0,50.0
sub_58,1,dense_right,786.2999999970198,img/object-9_120-levels_1D/object9F0Level69F1Level40.png,p,exemplar_display,72,99516,dense_right,p,1,True,70,-18.0,18.0
sub_58,1,dense_right,495.6000000089407,img/object-9_120-levels_1D/object9F0Level89F1Level40.png,q,exemplar_display,74,102024,dense_right,p,1,False,90,20.0,20.0
sub_58,1,dense_right,418.69999998807907,img/object-9_120-levels_1D/object9F0Level89F1Level40.png,q,exemplar_display,76,104531,dense_right,q,1,True,90,0.0,0.0
sub_58,1,dense_right,718.9000000059605,img/object-9_120-levels_1D/object9F0Level61F1Level40.png,p,exemplar_display,78,107039,dense_right,p,1,True,62,-28.0,28.0
sub_58,1,dense_right,1002.6000000089407,img/object-9_120-levels_1D/object9F0Level89F1Level40.png,q,exemplar_display,80,109547,dense_right,p,1,False,90,28.0,28.0
sub_58,1,dense_right,520.1999999880791,img/object-9_120-levels_1D/object9F0Level103F1Level40.png,q,exemplar_display,82,112054,dense_right,p,1,False,104,14.0,14.0
sub_58,1,dense_right,724.0999999940395,img/object-9_120-levels_1D/object9F0Level69F1Level40.png,p,exemplar_display,84,114562,dense_right,p,1,True,70,-34.0,34.0
sub_58,1,dense_right,624.7000000029802,img/object-9_120-levels_1D/object9F0Level69F1Level40.png,p,exemplar_display,86,117070,dense_right,q,1,False,70,0.0,0.0
sub_58,1,dense_right,859.5,img/object-9_120-levels_1D/object9F0Level61F1Level40.png,q,exemplar_display,88,119577,dense_right,p,1,False,62,-8.0,8.0
sub_58,1,dense_right,641.7999999970198,img/object-9_120-levels_1D/object9F0Level81F1Level40.png,p,exemplar_display,90,122085,dense_right,p,1,True,82,20.0,20.0
sub_58,1,dense_right,1116.8999999910593,img/object-9_120-levels_1D/object9F0Level81F1Level40.png,q,exemplar_display,92,124593,dense_right,q,1,True,82,0.0,0.0
sub_58,1,dense_right,724.2000000029802,img/object-9_120-levels_1D/object9F0Level53F1Level40.png,p,exemplar_display,94,127106,dense_right,p,1,True,54,-28.0,28.0
sub_58,1,dense_right,670.4000000059605,img/object-9_120-levels_1D/object9F0Level77F1Level40.png,p,exemplar_display,96,129614,dense_right,p,1,True,78,24.0,24.0
sub_58,1,dense_right,579.7999999970198,img/object-9_120-levels_1D/object9F0Level77F1Level40.png,q,exemplar_display,98,132121,dense_right,q,1,True,78,0.0,0.0
sub_58,1,dense_right,752.5999999940395,img/object-9_120-levels_1D/object9F0Level79F1Level40.png,p,exemplar_display,100,134629,dense_right,p,1,True,80,2.0,2.0
sub_58,1,dense_right,676.5,img/object-9_120-levels_1D/object9F0Level75F1Level40.png,q,exemplar_display,102,137137,dense_right,p,1,False,76,-4.0,4.0
sub_58,1,dense_right,536.1000000089407,img/object-9_120-levels_1D/object9F0Level101F1Level40.png,p,exemplar_display,104,139644,dense_right,p,1,True,102,26.0,26.0
sub_58,1,dense_right,1074.199999988079,img/object-9_120-levels_1D/object9F0Level73F1Level40.png,p,exemplar_display,2,15032,dense_right,p,2,,74,-28.0,28.0
sub_58,1,dense_right,1299.0999999940395,img/object-9_120-levels_1D/object9F0Level75F1Level40.png,q,exemplar_display,4,17540,dense_right,p,2,False,76,2.0,2.0
sub_58,1,dense_right,591.2999999970198,img/object-9_120-levels_1D/object9F0Level89F1Level40.png,p,exemplar_display,6,20047,dense_right,p,2,True,90,14.0,14.0
sub_58,1,dense_right,1169.4000000059605,img/object-9_120-levels_1D/object9F0Level105F1Level40.png,q,exemplar_display,8,22555,dense_right,p,2,False,106,16.0,16.0
sub_58,1,dense_right,743.7000000029802,img/object-9_120-levels_1D/object9F0Level99F1Level40.png,q,exemplar_display,10,25062,dense_right,p,2,False,100,-6.0,6.0
sub_58,1,dense_right,468.90000000596046,img/object-9_120-levels_1D/object9F0Level99F1Level40.png,q,exemplar_display,12,27570,dense_right,q,2,True,100,0.0,0.0
sub_58,1,dense_right,536.5999999940395,img/object-9_120-levels_1D/object9F0Level61F1Level40.png,p,exemplar_display,14,30079,dense_right,p,2,True,62,-38.0,38.0
sub_58,1,dense_right,514.6000000089407,img/object-9_120-levels_1D/object9F0Level89F1Level40.png,p,exemplar_display,16,32590,dense_right,p,2,True,90,28.0,28.0
sub_58,1,dense_right,514.2000000029802,img/object-9_120-levels_1D/object9F0Level103F1Level40.png,q,exemplar_display,18,35100,dense_right,p,2,False,104,14.0,14.0
sub_58,1,dense_right,438.30000001192093,img/object-9_120-levels_1D/object9F0Level107F1Level40.png,q,exemplar_display,20,37608,dense_right,p,2,False,108,4.0,4.0
sub_58,1,dense_right,482.0,img/object-9_120-levels_1D/object9F0Level107F1Level40.png,q,exemplar_display,22,40115,dense_right,q,2,True,108,0.0,0.0
sub_58,1,dense_right,453.70000000298023,img/object-9_120-levels_1D/object9F0Level89F1Level40.png,q,exemplar_display,24,42623,dense_right,p,2,False,90,-18.0,18.0
sub_58,1,dense_right,491.70000000298023,img/object-9_120-levels_1D/object9F0Level89F1Level40.png,q,exemplar_display,26,45131,dense_right,q,2,True,90,0.0,0.0
sub_58,1,dense_right,598.9000000059605,img/object-9_120-levels_1D/object9F0Level83F1Level40.png,q,exemplar_display,28,47638,dense_right,p,2,False,84,-6.0,6.0
sub_58,1,dense_right,651.2000000029802,img/object-9_120-levels_1D/object9F0Level85F1Level40.png,q,exemplar_display,30,50147,dense_right,p,2,False,86,2.0,2.0
sub_58,1,dense_right,638.5999999940395,img/object-9_120-levels_1D/object9F0Level77F1Level40.png,q,exemplar_display,32,52654,dense_right,p,2,False,78,-8.0,8.0
sub_58,1,dense_right,1037.5,img/object-9_120-levels_1D/object9F0Level77F1Level40.png,q,exemplar_display,34,55167,dense_right,q,2,True,78,0.0,0.0
sub_58,1,dense_right,618.7999999970198,img/object-9_120-levels_1D/object9F0Level29F1Level40.png,p,exemplar_display,36,57675,dense_right,p,2,True,30,-48.0,48.0
sub_58,1,dense_right,789.7000000029802,img/object-9_120-levels_1D/object9F0Level79F1Level40.png,q,exemplar_display,38,60183,dense_right,p,2,False,80,50.0,50.0
sub_58,1,dense_right,1250.0999999940395,img/object-9_120-levels_1D/object9F0Level97F1Level40.png,p,exemplar_display,40,62690,dense_right,p,2,True,98,18.0,18.0
sub_58,1,dense_right,758.6000000089407,img/object-9_120-levels_1D/object9F0Level91F1Level40.png,q,exemplar_display,42,65198,dense_right,p,2,False,92,-6.0,6.0
sub_58,1,dense_right,626.9000000059605,img/object-9_120-levels_1D/object9F0Level91F1Level40.png,q,exemplar_display,44,67706,dense_right,q,2,True,92,0.0,0.0
sub_58,1,dense_right,551.2000000029802,img/object-9_120-levels_1D/object9F0Level109F1Level40.png,q,exemplar_display,46,70213,dense_right,p,2,False,110,18.0,18.0
sub_58,1,dense_right,612.1999999880791,img/object-9_120-levels_1D/object9F0Level103F1Level40.png,q,exemplar_display,48,72727,dense_right,p,2,False,104,-6.0,6.0
sub_58,1,dense_right,850.0999999940395,img/object-9_120-levels_1D/object9F0Level85F1Level40.png,p,exemplar_display,50,75237,dense_right,p,2,True,86,-18.0,18.0
sub_58,1,dense_right,660.2999999970198,img/object-9_120-levels_1D/object9F0Level79F1Level40.png,q,exemplar_display,52,77749,dense_right,p,2,False,80,-6.0,6.0
sub_58,1,dense_right,892.5,img/object-9_120-levels_1D/object9F0Level71F1Level40.png,q,exemplar_display,54,80256,dense_right,p,2,False,72,-8.0,8.0
sub_58,1,dense_right,584.2000000029802,img/object-9_120-levels_1D/object9F0Level91F1Level40.png,p,exemplar_display,56,82764,dense_right,p,2,True,92,20.0,20.0
sub_58,1,dense_right,748.7999999970198,img/object-9_120-levels_1D/object9F0Level101F1Level40.png,q,exemplar_display,58,85271,dense_right,p,2,False,102,10.0,10.0
sub_58,1,dense_right,882.0999999940395,img/object-9_120-levels_1D/object9F0Level75F1Level40.png,p,exemplar_display,60,87779,dense_right,p,2,True,76,-26.0,26.0
sub_58,1,dense_right,685.5,img/object-9_120-levels_1D/object9F0Level75F1Level40.png,q,exemplar_display,62,90287,dense_right,q,2,True,76,0.0,0.0
sub_58,1,dense_right,559.7999999970198,img/object-9_120-levels_1D/object9F0Level101F1Level40.png,p,exemplar_display,64,92795,dense_right,p,2,True,102,26.0,26.0
sub_58,1,dense_right,630.2999999970198,img/object-9_120-levels_1D/object9F0Level73F1Level40.png,q,exemplar_display,66,95302,dense_right,p,2,False,74,-28.0,28.0
sub_58,1,dense_right,561.7000000029802,img/object-9_120-levels_1D/object9F0Level103F1Level40.png,p,exemplar_display,68,97810,dense_right,p,2,True,104,30.0,30.0
sub_58,1,dense_right,855.2999999970198,img/object-9_120-levels_1D/object9F0Level103F1Level40.png,q,exemplar_display,70,100318,dense_right,q,2,True,104,0.0,0.0
sub_58,1,dense_right,634.7000000029802,img/object-9_120-levels_1D/object9F0Level97F1Level40.png,q,exemplar_display,72,102825,dense_right,p,2,False,98,-6.0,6.0
sub_58,1,dense_right,638.7999999970198,img/object-9_120-levels_1D/object9F0Level83F1Level40.png,p,exemplar_display,74,105333,dense_right,p,2,True,84,-14.0,14.0
sub_58,1,dense_right,1131.1000000089407,img/object-9_120-levels_1D/object9F0Level69F1Level40.png,q,exemplar_display,76,107841,dense_right,p,2,False,70,-14.0,14.0
sub_58,1,dense_right,752.0,img/object-9_120-levels_1D/object9F0Level87F1Level40.png,p,exemplar_display,78,110348,dense_right,p,2,True,88,18.0,18.0
sub_58,1,dense_right,587.5,img/object-9_120-levels_1D/object9F0Level97F1Level40.png,q,exemplar_display,80,112856,dense_right,p,2,False,98,10.0,10.0
sub_58,1,dense_right,808.2999999970198,img/object-9_120-levels_1D/object9F0Level81F1Level40.png,q,exemplar_display,82,115363,dense_right,p,2,False,82,-16.0,16.0
sub_58,1,dense_right,556.5,img/object-9_120-levels_1D/object9F0Level53F1Level40.png,p,exemplar_display,84,117871,dense_right,p,2,True,54,-28.0,28.0
sub_58,1,dense_right,720.5,img/object-9_120-levels_1D/object9F0Level71F1Level40.png,p,exemplar_display,86,120379,dense_right,p,2,True,72,18.0,18.0
sub_58,1,dense_right,575.7000000029802,img/object-9_120-levels_1D/object9F0Level73F1Level40.png,p,exemplar_display,88,122893,dense_right,p,2,True,74,2.0,2.0
sub_58,1,dense_right,763.5999999940395,img/object-9_120-levels_1D/object9F0Level69F1Level40.png,q,exemplar_display,90,125400,dense_right,p,2,False,70,-4.0,4.0
sub_58,1,dense_right,512.8000000119209,img/object-9_120-levels_1D/object9F0Level85F1Level40.png,p,exemplar_display,92,127908,dense_right,p,2,True,86,16.0,16.0
sub_58,1,dense_right,843.9000000059605,img/object-9_120-levels_1D/object9F0Level85F1Level40.png,p,exemplar_display,94,130416,dense_right,q,2,False,86,0.0,0.0
sub_58,1,dense_right,740.0,img/object-9_120-levels_1D/object9F0Level77F1Level40.png,p,exemplar_display,96,132923,dense_right,p,2,True,78,-8.0,8.0
sub_58,1,dense_right,668.2000000029802,img/object-9_120-levels_1D/object9F0Level85F1Level40.png,p,exemplar_display,98,135430,dense_right,p,2,True,86,8.0,8.0
sub_58,1,dense_right,704.7000000029802,img/object-9_120-levels_1D/object9F0Level97F1Level40.png,p,exemplar_display,100,137939,dense_right,p,2,True,98,12.0,12.0
sub_58,1,dense_right,751.4000000059605,img/object-9_120-levels_1D/object9F0Level97F1Level40.png,q,exemplar_display,102,140452,dense_right,q,2,True,98,0.0,0.0
sub_58,1,dense_right,666.5999999940395,img/object-9_120-levels_1D/object9F0Level85F1Level40.png,q,exemplar_display,104,142962,dense_right,p,2,False,86,-12.0,12.0
sub_58,1,dense_right,1984.5,img/object-9_120-levels_1D/object9F0Level29F1Level40.png,q,exemplar_display,2,12778,dense_right,p,3,,30,-56.0,56.0
sub_58,1,dense_right,1564.0999999940395,img/object-9_120-levels_1D/object9F0Level99F1Level40.png,q,exemplar_display,4,15286,dense_right,p,3,False,100,70.0,70.0
sub_58,1,dense_right,1576.6000000089407,img/object-9_120-levels_1D/object9F0Level79F1Level40.png,q,exemplar_display,6,17793,dense_right,p,3,False,80,-20.0,20.0
sub_58,1,dense_right,1035.7000000029802,img/object-9_120-levels_1D/object9F0Level101F1Level40.png,p,exemplar_display,8,20301,dense_right,p,3,True,102,22.0,22.0
sub_58,1,dense_right,824.9000000059605,img/object-9_120-levels_1D/object9F0Level97F1Level40.png,q,exemplar_display,10,22809,dense_right,p,3,False,98,-4.0,4.0
sub_58,1,dense_right,875.9000000059605,img/object-9_120-levels_1D/object9F0Level99F1Level40.png,q,exemplar_display,12,25322,dense_right,p,3,False,100,2.0,2.0
sub_58,1,dense_right,958.7999999970198,img/object-9_120-levels_1D/object9F0Level93F1Level40.png,q,exemplar_display,14,27836,dense_right,p,3,False,94,-6.0,6.0
sub_58,1,dense_right,641.4000000059605,img/object-9_120-levels_1D/object9F0Level93F1Level40.png,q,exemplar_display,16,30345,dense_right,q,3,True,94,0.0,0.0
sub_58,1,dense_right,653.2999999970198,img/object-9_120-levels_1D/object9F0Level75F1Level40.png,p,exemplar_display,18,32852,dense_right,p,3,True,76,-18.0,18.0
sub_58,1,dense_right,1025.2999999970198,img/object-9_120-levels_1D/object9F0Level73F1Level40.png,q,exemplar_display,20,35360,dense_right,p,3,False,74,-2.0,2.0
sub_58,1,dense_right,789.5999999940395,img/object-9_120-levels_1D/object9F0Level69F1Level40.png,p,exemplar_display,22,37868,dense_right,p,3,True,70,-4.0,4.0
sub_58,1,dense_right,776.9000000059605,img/object-9_120-levels_1D/object9F0Level37F1Level40.png,q,exemplar_display,24,40375,dense_right,p,3,False,38,-32.0,32.0
sub_58,1,dense_right,1070.0999999940395,img/object-9_120-levels_1D/object9F0Level77F1Level40.png,p,exemplar_display,26,42887,dense_right,p,3,True,78,40.0,40.0
sub_58,1,dense_right,756.7000000029802,img/object-9_120-levels_1D/object9F0Level95F1Level40.png,p,exemplar_display,28,45396,dense_right,p,3,True,96,18.0,18.0
sub_58,1,dense_right,752.9000000059605,img/object-9_120-levels_1D/object9F0Level83F1Level40.png,q,exemplar_display,30,47904,dense_right,p,3,False,84,-12.0,12.0
sub_58,1,dense_right,964.2000000029802,img/object-9_120-levels_1D/object9F0Level105F1Level40.png,p,exemplar_display,32,50412,dense_right,p,3,True,106,22.0,22.0
sub_58,1,dense_right,777.1000000089407,img/object-9_120-levels_1D/object9F0Level105F1Level40.png,q,exemplar_display,34,52919,dense_right,q,3,True,106,0.0,0.0
sub_58,1,dense_right,1196.1000000089407,img/object-9_120-levels_1D/object9F0Level75F1Level40.png,p,exemplar_display,36,55427,dense_right,p,3,True,76,-30.0,30.0
sub_58,1,dense_right,1162.300000011921,img/object-9_120-levels_1D/object9F0Level81F1Level40.png,p,exemplar_display,38,57935,dense_right,p,3,True,82,6.0,6.0
sub_58,1,dense_right,997.5999999940395,img/object-9_120-levels_1D/object9F0Level81F1Level40.png,q,exemplar_display,40,60446,dense_right,q,3,True,82,0.0,0.0
sub_58,1,dense_right,689.5,img/object-9_120-levels_1D/object9F0Level91F1Level40.png,q,exemplar_display,42,62953,dense_right,p,3,False,92,10.0,10.0
sub_58,1,dense_right,551.1000000089407,img/object-9_120-levels_1D/object9F0Level101F1Level40.png,q,exemplar_display,44,65469,dense_right,p,3,False,102,10.0,10.0
sub_58,1,dense_right,670.2999999970198,img/object-9_120-levels_1D/object9F0Level79F1Level40.png,p,exemplar_display,46,67977,dense_right,p,3,True,80,-22.0,22.0
sub_58,1,dense_right,691.0999999940395,img/object-9_120-levels_1D/object9F0Level69F1Level40.png,q,exemplar_display,48,70486,dense_right,p,3,False,70,-10.0,10.0
sub_58,1,dense_right,743.2000000029802,img/object-9_120-levels_1D/object9F0Level69F1Level40.png,p,exemplar_display,50,72992,dense_right,q,3,False,70,0.0,0.0
sub_58,1,dense_right,627.8999999910593,img/object-9_120-levels_1D/object9F0Level107F1Level40.png,p,exemplar_display,52,75500,dense_right,p,3,True,108,38.0,38.0
sub_58,1,dense_right,826.4000000059605,img/object-9_120-levels_1D/object9F0Level73F1Level40.png,q,exemplar_display,54,78006,dense_right,p,3,False,74,-34.0,34.0
sub_58,1,dense_right,531.7000000029802,img/object-9_120-levels_1D/object9F0Level73F1Level40.png,q,exemplar_display,56,80516,dense_right,q,3,True,74,0.0,0.0
sub_58,1,dense_right,544.7000000029802,img/object-9_120-levels_1D/object9F0Level87F1Level40.png,p,exemplar_display,58,83023,dense_right,p,3,True,88,14.0,14.0
sub_58,1,dense_right,775.0999999940395,img/object-9_120-levels_1D/object9F0Level109F1Level40.png,p,exemplar_display,60,85537,dense_right,p,3,True,110,22.0,22.0
sub_58,1,dense_right,593.6000000089407,img/object-9_120-levels_1D/object9F0Level91F1Level40.png,p,exemplar_display,62,88050,dense_right,p,3,True,92,-18.0,18.0
sub_58,1,dense_right,785.3000000119209,img/object-9_120-levels_1D/object9F0Level71F1Level40.png,q,exemplar_display,64,90558,dense_right,p,3,False,72,-20.0,20.0
sub_58,1,dense_right,806.7000000029802,img/object-9_120-levels_1D/object9F0Level53F1Level40.png,p,exemplar_display,66,93065,dense_right,p,3,True,54,-18.0,18.0
sub_58,1,dense_right,1025.7000000029802,img/object-9_120-levels_1D/object9F0Level29F1Level40.png,p,exemplar_display,68,95573,dense_right,p,3,True,30,-24.0,24.0
sub_58,1,dense_right,734.7000000029802,img/object-9_120-levels_1D/object9F0Level109F1Level40.png,p,exemplar_display,70,98083,dense_right,p,3,True,110,80.0,80.0
sub_58,1,dense_right,802.0,img/object-9_120-levels_1D/object9F0Level109F1Level40.png,q,exemplar_display,72,100589,dense_right,q,3,True,110,0.0,0.0
sub_58,1,dense_right,526.9000000059605,img/object-9_120-levels_1D/object9F0Level105F1Level40.png,q,exemplar_display,74,103096,dense_right,p,3,False,106,-4.0,4.0
sub_58,1,dense_right,581.7999999970198,img/object-9_120-levels_1D/object9F0Level105F1Level40.png,q,exemplar_display,76,105610,dense_right,q,3,True,106,0.0,0.0
sub_58,1,dense_right,665.0999999940395,img/object-9_120-levels_1D/object9F0Level53F1Level40.png,p,exemplar_display,78,108117,dense_right,p,3,True,54,-52.0,52.0
sub_58,1,dense_right,869.5,img/object-9_120-levels_1D/object9F0Level53F1Level40.png,q,exemplar_display,80,110625,dense_right,q,3,True,54,0.0,0.0
sub_58,1,dense_right,889.2000000029802,img/object-9_120-levels_1D/object9F0Level97F1Level40.png,p,exemplar_display,82,113133,dense_right,p,3,True,98,44.0,44.0
sub_58,1,dense_right,878.7999999970198,img/object-9_120-levels_1D/object9F0Level37F1Level40.png,p,exemplar_display,84,115640,dense_right,p,3,True,38,-60.0,60.0
sub_58,1,dense_right,498.29999999701977,img/object-9_120-levels_1D/object9F0Level109F1Level40.png,p,exemplar_display,86,118152,dense_right,p,3,True,110,72.0,72.0
sub_58,1,dense_right,456.40000000596046,img/object-9_120-levels_1D/object9F0Level109F1Level40.png,q,exemplar_display,88,120662,dense_right,q,3,True,110,0.0,0.0
sub_58,1,dense_right,556.9000000059605,img/object-9_120-levels_1D/object9F0Level91F1Level40.png,q,exemplar_display,90,123169,dense_right,p,3,False,92,-18.0,18.0
sub_58,1,dense_right,553.5999999940395,img/object-9_120-levels_1D/object9F0Level29F1Level40.png,p,exemplar_display,92,125677,dense_right,p,3,True,30,-62.0,62.0
sub_58,1,dense_right,902.5,img/object-9_120-levels_1D/object9F0Level29F1Level40.png,p,exemplar_display,94,128185,dense_right,q,3,False,30,0.0,0.0
sub_58,1,dense_right,825.2999999970198,img/object-9_120-levels_1D/object9F0Level53F1Level40.png,p,exemplar_display,96,130692,dense_right,p,3,True,54,24.0,24.0
sub_58,1,dense_right,1190.0999999940395,img/object-9_120-levels_1D/object9F0Level99F1Level40.png,p,exemplar_display,98,133200,dense_right,p,3,True,100,46.0,46.0
sub_58,1,dense_right,668.8999999910593,img/object-9_120-levels_1D/object9F0Level103F1Level40.png,q,exemplar_display,100,135708,dense_right,p,3,False,104,4.0,4.0
sub_58,1,dense_right,374.8999999910593,img/object-9_120-levels_1D/object9F0Level107F1Level40.png,q,exemplar_display,102,138215,dense_right,p,3,False,108,4.0,4.0
sub_58,1,dense_right,698.8999999910593,img/object-9_120-levels_1D/object9F0Level45F1Level40.png,p,exemplar_display,104,140723,dense_right,p,3,True,46,-62.0,62.0
sub_58,1,dense_right,1499.7000000029802,img/object-9_120-levels_1D/object9F0Level85F1Level40.png,p,exemplar_display,2,20326,dense_right,p,4,,86,40.0,40.0
sub_58,1,dense_right,1296.300000011921,img/object-9_120-levels_1D/object9F0Level83F1Level40.png,q,exemplar_display,4,22833,dense_right,p,4,False,84,-2.0,2.0
sub_58,1,dense_right,596.6000000089407,img/object-9_120-levels_1D/object9F0Level29F1Level40.png,p,exemplar_display,6,25341,dense_right,p,4,True,30,-54.0,54.0
sub_58,1,dense_right,848.0,img/object-9_120-levels_1D/object9F0Level29F1Level40.png,q,exemplar_display,8,27853,dense_right,q,4,True,30,0.0,0.0
sub_58,1,dense_right,631.0,img/object-9_120-levels_1D/object9F0Level83F1Level40.png,p,exemplar_display,10,30364,dense_right,p,4,True,84,54.0,54.0
sub_58,1,dense_right,530.2000000029802,img/object-9_120-levels_1D/object9F0Level95F1Level40.png,q,exemplar_display,12,32871,dense_right,p,4,False,96,12.0,12.0
sub_58,1,dense_right,517.5999999940395,img/object-9_120-levels_1D/object9F0Level95F1Level40.png,q,exemplar_display,14,35379,dense_right,q,4,True,96,0.0,0.0
sub_58,1,dense_right,628.6000000089407,img/object-9_120-levels_1D/object9F0Level83F1Level40.png,q,exemplar_display,16,37892,dense_right,p,4,False,84,-12.0,12.0
sub_58,1,dense_right,552.9000000059605,img/object-9_120-levels_1D/object9F0Level85F1Level40.png,q,exemplar_display,18,40400,dense_right,p,4,False,86,2.0,2.0
sub_58,1,dense_right,613.1000000089407,img/object-9_120-levels_1D/object9F0Level37F1Level40.png,p,exemplar_display,20,42908,dense_right,p,4,True,38,-48.0,48.0
sub_58,1,dense_right,585.9000000059605,img/object-9_120-levels_1D/object9F0Level37F1Level40.png,q,exemplar_display,22,45415,dense_right,q,4,True,38,0.0,0.0
sub_58,1,dense_right,484.29999999701977,img/object-9_120-levels_1D/object9F0Level93F1Level40.png,p,exemplar_display,24,47923,dense_right,p,4,True,94,56.0,56.0
sub_58,1,dense_right,618.0,img/object-9_120-levels_1D/object9F0Level105F1Level40.png,q,exemplar_display,26,50431,dense_right,p,4,False,106,12.0,12.0
sub_58,1,dense_right,862.5,img/object-9_120-levels_1D/object9F0Level61F1Level40.png,p,exemplar_display,28,52938,dense_right,p,4,True,62,-44.0,44.0
sub_58,1,dense_right,586.2999999970198,img/object-9_120-levels_1D/object9F0Level45F1Level40.png,q,exemplar_display,30,55446,dense_right,p,4,False,46,-16.0,16.0
sub_58,1,dense_right,653.7999999970198,img/object-9_120-levels_1D/object9F0Level71F1Level40.png,p,exemplar_display,32,57954,dense_right,p,4,True,72,26.0,26.0
sub_58,1,dense_right,546.8999999910593,img/object-9_120-levels_1D/object9F0Level45F1Level40.png,q,exemplar_display,34,60461,dense_right,p,4,False,46,-26.0,26.0
sub_58,1,dense_right,551.0,img/object-9_120-levels_1D/object9F0Level45F1Level40.png,q,exemplar_display,36,62969,dense_right,q,4,True,46,0.0,0.0
sub_58,1,dense_right,531.8000000119209,img/object-9_120-levels_1D/object9F0Level109F1Level40.png,p,exemplar_display,38,65477,dense_right,p,4,True,110,64.0,64.0
sub_58,1,dense_right,608.9000000059605,img/object-9_120-levels_1D/object9F0Level91F1Level40.png,q,exemplar_display,40,67985,dense_right,p,4,False,92,-18.0,18.0
sub_58,1,dense_right,491.5,img/object-9_120-levels_1D/object9F0Level107F1Level40.png,q,exemplar_display,42,70492,dense_right,p,4,False,108,16.0,16.0
sub_58,1,dense_right,512.4000000059605,img/object-9_120-levels_1D/object9F0Level107F1Level40.png,q,exemplar_display,44,73000,dense_right,q,4,True,108,0.0,0.0
sub_58,1,dense_right,692.8000000119209,img/object-9_120-levels_1D/object9F0Level37F1Level40.png,p,exemplar_display,46,75508,dense_right,p,4,True,38,-70.0,70.0
sub_58,1,dense_right,664.0999999940395,img/object-9_120-levels_1D/object9F0Level109F1Level40.png,p,exemplar_display,48,78019,dense_right,p,4,True,110,72.0,72.0
sub_58,1,dense_right,517.7999999970198,img/object-9_120-levels_1D/object9F0Level95F1Level40.png,p,exemplar_display,50,80529,dense_right,p,4,True,96,-14.0,14.0
sub_58,1,dense_right,627.7000000029802,img/object-9_120-levels_1D/object9F0Level45F1Level40.png,p,exemplar_display,52,83036,dense_right,p,4,True,46,-50.0,50.0
sub_58,1,dense_right,617.2000000029802,img/object-9_120-levels_1D/object9F0Level45F1Level40.png,q,exemplar_display,54,85550,dense_right,q,4,True,46,0.0,0.0
sub_58,1,dense_right,645.8000000119209,img/object-9_120-levels_1D/object9F0Level83F1Level40.png,p,exemplar_display,56,88059,dense_right,p,4,True,84,38.0,38.0
sub_58,1,dense_right,450.70000000298023,img/object-9_120-levels_1D/object9F0Level83F1Level40.png,q,exemplar_display,58,90565,dense_right,q,4,True,84,0.0,0.0
sub_58,1,dense_right,486.29999999701977,img/object-9_120-levels_1D/object9F0Level71F1Level40.png,q,exemplar_display,60,93073,dense_right,p,4,False,72,-12.0,12.0
sub_58,1,dense_right,642.7000000029802,img/object-9_120-levels_1D/object9F0Level81F1Level40.png,p,exemplar_display,62,95581,dense_right,p,4,True,82,10.0,10.0
sub_58,1,dense_right,702.3999999910593,img/object-9_120-levels_1D/object9F0Level53F1Level40.png,p,exemplar_display,64,98090,dense_right,p,4,True,54,-28.0,28.0
sub_58,1,dense_right,1330.9000000059605,img/object-9_120-levels_1D/object9F0Level107F1Level40.png,p,exemplar_display,66,100596,dense_right,p,4,True,108,54.0,54.0
sub_58,1,dense_right,898.0999999940395,img/object-9_120-levels_1D/object9F0Level61F1Level40.png,p,exemplar_display,68,103109,dense_right,p,4,True,62,-46.0,46.0
sub_58,1,dense_right,405.59999999403954,img/object-9_120-levels_1D/object9F0Level61F1Level40.png,q,exemplar_display,70,105617,dense_right,q,4,True,62,0.0,0.0
sub_58,1,dense_right,616.7999999970198,img/object-9_120-levels_1D/object9F0Level93F1Level40.png,p,exemplar_display,72,108125,dense_right,p,4,True,94,32.0,32.0
sub_58,1,dense_right,654.4000000059605,img/object-9_120-levels_1D/object9F0Level37F1Level40.png,p,exemplar_display,74,110633,dense_right,p,4,True,38,-56.0,56.0
sub_58,1,dense_right,746.5,img/object-9_120-levels_1D/object9F0Level77F1Level40.png,q,exemplar_display,76,113140,dense_right,p,4,False,78,40.0,40.0
sub_58,1,dense_right,414.90000000596046,img/object-9_120-levels_1D/object9F0Level101F1Level40.png,q,exemplar_display,78,115648,dense_right,p,4,False,102,24.0,24.0
sub_58,1,dense_right,754.0999999940395,img/object-9_120-levels_1D/object9F0Level101F1Level40.png,q,exemplar_display,80,118156,dense_right,q,4,True,102,0.0,0.0
sub_58,1,dense_right,487.0,img/object-9_120-levels_1D/object9F0Level97F1Level40.png,q,exemplar_display,82,120663,dense_right,p,4,False,98,-4.0,4.0
sub_58,1,dense_right,462.79999999701977,img/object-9_120-levels_1D/object9F0Level105F1Level40.png,q,exemplar_display,84,123177,dense_right,p,4,False,106,8.0,8.0
sub_58,1,dense_right,458.3999999910593,img/object-9_120-levels_1D/object9F0Level93F1Level40.png,q,exemplar_display,86,125684,dense_right,p,4,False,94,-12.0,12.0
sub_58,1,dense_right,477.8999999910593,img/object-9_120-levels_1D/object9F0Level107F1Level40.png,q,exemplar_display,88,128192,dense_right,p,4,False,108,14.0,14.0
sub_58,1,dense_right,818.3999999910593,img/object-9_120-levels_1D/object9F0Level73F1Level40.png,p,exemplar_display,90,130700,dense_right,p,4,True,74,-34.0,34.0
sub_58,1,dense_right,1063.0,img/object-9_120-levels_1D/object9F0Level81F1Level40.png,q,exemplar_display,92,133207,dense_right,p,4,False,82,8.0,8.0
sub_58,1,dense_right,562.9000000059605,img/object-9_120-levels_1D/object9F0Level71F1Level40.png,q,exemplar_display,94,135715,dense_right,p,4,False,72,-10.0,10.0
sub_58,1,dense_right,516.2000000029802,img/object-9_120-levels_1D/object9F0Level71F1Level40.png,q,exemplar_display,96,138229,dense_right,q,4,True,72,0.0,0.0
sub_58,1,dense_right,693.5,img/object-9_120-levels_1D/object9F0Level105F1Level40.png,p,exemplar_display,98,140736,dense_right,p,4,True,106,34.0,34.0
sub_58,1,dense_right,666.0,img/object-9_120-levels_1D/object9F0Level29F1Level40.png,p,exemplar_display,100,143247,dense_right,p,4,True,30,-76.0,76.0
sub_58,1,dense_right,793.2000000029802,img/object-9_120-levels_1D/object9F0Level103F1Level40.png,q,exemplar_display,102,145757,dense_right,p,4,False,104,74.0,74.0
sub_58,1,dense_right,547.9000000059605,img/object-9_120-levels_1D/object9F0Level103F1Level40.png,q,exemplar_display,104,148267,dense_right,q,4,True,104,0.0,0.0
sub_58,1,dense_right,2007.0999999940395,img/object-9_120-levels_1D/object9F0Level79F1Level40.png,p,exemplar_display,2,11297,dense_right,p,5,,80,-24.0,24.0
sub_58,1,dense_right,1000.2000000029802,img/object-9_120-levels_1D/object9F0Level85F1Level40.png,p,exemplar_display,4,13803,dense_right,p,5,True,86,6.0,6.0
sub_58,1,dense_right,689.2000000029802,img/object-9_120-levels_1D/object9F0Level109F1Level40.png,q,exemplar_display,6,16310,dense_right,p,5,False,110,24.0,24.0
sub_58,1,dense_right,1151.2999999970198,img/object-9_120-levels_1D/object9F0Level87F1Level40.png,q,exemplar_display,8,18818,dense_right,p,5,False,88,-22.0,22.0
sub_58,1,dense_right,664.4000000059605,img/object-9_120-levels_1D/object9F0Level87F1Level40.png,p,exemplar_display,10,21326,dense_right,q,5,False,88,0.0,0.0
sub_58,1,dense_right,696.2000000029802,img/object-9_120-levels_1D/object9F0Level87F1Level40.png,q,exemplar_display,12,23833,dense_right,q,5,True,88,0.0,0.0
sub_58,1,dense_right,778.5999999940395,img/object-9_120-levels_1D/object9F0Level71F1Level40.png,p,exemplar_display,14,26341,dense_right,p,5,True,72,-16.0,16.0
sub_58,1,dense_right,1704.9000000059605,img/object-9_120-levels_1D/object9F0Level45F1Level40.png,q,exemplar_display,16,28854,dense_right,p,5,False,46,-26.0,26.0
sub_58,1,dense_right,1261.2000000029802,img/object-9_120-levels_1D/object9F0Level99F1Level40.png,p,exemplar_display,18,31364,dense_right,p,5,True,100,54.0,54.0
sub_58,1,dense_right,1120.199999988079,img/object-9_120-levels_1D/object9F0Level105F1Level40.png,q,exemplar_display,20,33871,dense_right,p,5,False,106,6.0,6.0
sub_58,1,dense_right,699.2999999970198,img/object-9_120-levels_1D/object9F0Level45F1Level40.png,p,exemplar_display,22,36379,dense_right,p,5,True,46,-60.0,60.0
sub_58,1,dense_right,658.2000000029802,img/object-9_120-levels_1D/object9F0Level89F1Level40.png,p,exemplar_display,24,38887,dense_right,p,5,True,90,44.0,44.0
sub_58,1,dense_right,940.4000000059605,img/object-9_120-levels_1D/object9F0Level97F1Level40.png,q,exemplar_display,26,41394,dense_right,p,5,False,98,8.0,8.0
sub_58,1,dense_right,635.5999999940395,img/object-9_120-levels_1D/object9F0Level97F1Level40.png,q,exemplar_display,28,43902,dense_right,q,5,True,98,0.0,0.0
sub_58,1,dense_right,477.59999999403954,img/object-9_120-levels_1D/object9F0Level93F1Level40.png,q,exemplar_display,30,46410,dense_right,p,5,False,94,-4.0,4.0
sub_58,1,dense_right,536.5999999940395,img/object-9_120-levels_1D/object9F0Level37F1Level40.png,p,exemplar_display,32,48918,dense_right,p,5,True,38,-56.0,56.0
sub_58,1,dense_right,800.3999999910593,img/object-9_120-levels_1D/object9F0Level83F1Level40.png,p,exemplar_display,34,51425,dense_right,p,5,True,84,46.0,46.0
sub_58,1,dense_right,649.7999999970198,img/object-9_120-levels_1D/object9F0Level29F1Level40.png,p,exemplar_display,36,53933,dense_right,p,5,True,30,-54.0,54.0
sub_58,1,dense_right,473.1000000089407,img/object-9_120-levels_1D/object9F0Level99F1Level40.png,p,exemplar_display,38,56440,dense_right,p,5,True,100,70.0,70.0
sub_58,1,dense_right,433.6000000089407,img/object-9_120-levels_1D/object9F0Level109F1Level40.png,q,exemplar_display,40,58948,dense_right,p,5,False,110,10.0,10.0
sub_58,1,dense_right,571.1999999880791,img/object-9_120-levels_1D/object9F0Level101F1Level40.png,q,exemplar_display,42,61461,dense_right,p,5,False,102,-8.0,8.0
sub_58,1,dense_right,477.0,img/object-9_120-levels_1D/object9F0Level93F1Level40.png,q,exemplar_display,44,63969,dense_right,p,5,False,94,-8.0,8.0
sub_58,1,dense_right,475.59999999403954,img/object-9_120-levels_1D/object9F0Level93F1Level40.png,q,exemplar_display,46,66476,dense_right,q,5,True,94,0.0,0.0
sub_58,1,dense_right,752.0999999940395,img/object-9_120-levels_1D/object9F0Level79F1Level40.png,p,exemplar_display,48,68985,dense_right,p,5,True,80,-14.0,14.0
sub_58,1,dense_right,580.6000000089407,img/object-9_120-levels_1D/object9F0Level79F1Level40.png,p,exemplar_display,50,71492,dense_right,q,5,False,80,0.0,0.0
sub_58,1,dense_right,630.0,img/object-9_120-levels_1D/object9F0Level73F1Level40.png,q,exemplar_display,52,74000,dense_right,p,5,False,74,-6.0,6.0
sub_58,1,dense_right,642.0,img/object-9_120-levels_1D/object9F0Level37F1Level40.png,p,exemplar_display,54,76507,dense_right,p,5,True,38,-36.0,36.0
sub_58,1,dense_right,894.0,img/object-9_120-levels_1D/object9F0Level61F1Level40.png,q,exemplar_display,56,79015,dense_right,p,5,False,62,24.0,24.0
sub_58,1,dense_right,696.5,img/object-9_120-levels_1D/object9F0Level61F1Level40.png,q,exemplar_display,58,81529,dense_right,q,5,True,62,0.0,0.0
sub_58,1,dense_right,802.0,img/object-9_120-levels_1D/object9F0Level81F1Level40.png,p,exemplar_display,60,84036,dense_right,p,5,True,82,20.0,20.0
sub_58,1,dense_right,600.2000000029802,img/object-9_120-levels_1D/object9F0Level77F1Level40.png,p,exemplar_display,62,86544,dense_right,p,5,True,78,-4.0,4.0
sub_58,1,dense_right,697.6000000089407,img/object-9_120-levels_1D/object9F0Level91F1Level40.png,p,exemplar_display,64,89052,dense_right,p,5,True,92,14.0,14.0
sub_58,1,dense_right,613.0,img/object-9_120-levels_1D/object9F0Level103F1Level40.png,q,exemplar_display,66,91559,dense_right,p,5,False,104,12.0,12.0
sub_58,1,dense_right,597.4000000059605,img/object-9_120-levels_1D/object9F0Level99F1Level40.png,q,exemplar_display,68,94067,dense_right,p,5,False,100,-4.0,4.0
sub_58,1,dense_right,606.4000000059605,img/object-9_120-levels_1D/object9F0Level103F1Level40.png,q,exemplar_display,70,96574,dense_right,p,5,False,104,4.0,4.0
sub_58,1,dense_right,550.9000000059605,img/object-9_120-levels_1D/object9F0Level105F1Level40.png,q,exemplar_display,72,99088,dense_right,p,5,False,106,2.0,2.0
sub_58,1,dense_right,529.3999999910593,img/object-9_120-levels_1D/object9F0Level91F1Level40.png,q,exemplar_display,74,101598,dense_right,p,5,False,92,-14.0,14.0
sub_58,1,dense_right,592.5,img/object-9_120-levels_1D/object9F0Level91F1Level40.png,q,exemplar_display,76,104104,dense_right,q,5,True,92,0.0,0.0
sub_58,1,dense_right,585.8999999910593,img/object-9_120-levels_1D/object9F0Level69F1Level40.png,p,exemplar_display,78,106611,dense_right,p,5,True,70,-22.0,22.0
sub_58,1,dense_right,948.8000000119209,img/object-9_120-levels_1D/object9F0Level99F1Level40.png,q,exemplar_display,80,109123,dense_right,p,5,False,100,30.0,30.0
sub_58,1,dense_right,464.3999999910593,img/object-9_120-levels_1D/object9F0Level99F1Level40.png,q,exemplar_display,82,111632,dense_right,q,5,True,100,0.0,0.0
sub_58,1,dense_right,472.59999999403954,img/object-9_120-levels_1D/object9F0Level107F1Level40.png,q,exemplar_display,84,114140,dense_right,p,5,False,108,8.0,8.0
sub_58,1,dense_right,845.4000000059605,img/object-9_120-levels_1D/object9F0Level87F1Level40.png,p,exemplar_display,86,116648,dense_right,p,5,True,88,-20.0,20.0
sub_58,1,dense_right,778.2999999970198,img/object-9_120-levels_1D/object9F0Level87F1Level40.png,q,exemplar_display,88,119162,dense_right,q,5,True,88,0.0,0.0
sub_58,1,dense_right,591.3999999910593,img/object-9_120-levels_1D/object9F0Level53F1Level40.png,p,exemplar_display,90,121669,dense_right,p,5,True,54,-34.0,34.0
sub_58,1,dense_right,668.2000000029802,img/object-9_120-levels_1D/object9F0Level77F1Level40.png,q,exemplar_display,92,124177,dense_right,p,5,False,78,24.0,24.0
sub_58,1,dense_right,595.5,img/object-9_120-levels_1D/object9F0Level81F1Level40.png,q,exemplar_display,94,126684,dense_right,p,5,False,82,4.0,4.0
sub_58,1,dense_right,636.0,img/object-9_120-levels_1D/object9F0Level71F1Level40.png,q,exemplar_display,96,129192,dense_right,p,5,False,72,-10.0,10.0
sub_58,1,dense_right,609.4000000059605,img/object-9_120-levels_1D/object9F0Level71F1Level40.png,q,exemplar_display,98,131700,dense_right,q,5,True,72,0.0,0.0
sub_58,1,dense_right,661.5,img/object-9_120-levels_1D/object9F0Level87F1Level40.png,p,exemplar_display,100,134207,dense_right,p,5,True,88,16.0,16.0
sub_58,1,dense_right,596.5,img/object-9_120-levels_1D/object9F0Level95F1Level40.png,p,exemplar_display,102,136715,dense_right,p,5,True,96,8.0,8.0
sub_58,1,dense_right,700.7999999970198,img/object-9_120-levels_1D/object9F0Level89F1Level40.png,q,exemplar_display,104,139223,dense_right,p,5,False,90,-6.0,6.0
sub_59,1,dense_right,,img/object-9_120-levels_1D/object9F0Level83F1Level40.png,,exemplar_display,2,13231,dense_right,,1,,84,,
sub_59,1,dense_right,649.0,img/object-9_120-levels_1D/object9F0Level103F1Level40.png,q,exemplar_display,4,15841,dense_right,p,1,False,104,20.0,20.0
sub_59,1,dense_right,666.0,img/object-9_120-levels_1D/object9F0Level79F1Level40.png,q,exemplar_display,6,18465,dense_right,p,1,False,80,-24.0,24.0
sub_59,1,dense_right,746.0,img/object-9_120-levels_1D/object9F0Level83F1Level40.png,q,exemplar_display,8,20995,dense_right,p,1,False,84,4.0,4.0
sub_59,1,dense_right,547.0,img/object-9_120-levels_1D/object9F0Level101F1Level40.png,q,exemplar_display,10,23573,dense_right,p,1,False,102,18.0,18.0
sub_59,1,dense_right,607.0,img/object-9_120-levels_1D/object9F0Level101F1Level40.png,q,exemplar_display,12,26104,dense_right,q,1,True,102,0.0,0.0
sub_59,1,dense_right,537.0,img/object-9_120-levels_1D/object9F0Level91F1Level40.png,q,exemplar_display,14,28745,dense_right,p,1,False,92,-10.0,10.0
sub_59,1,dense_right,729.0,img/object-9_120-levels_1D/object9F0Level109F1Level40.png,q,exemplar_display,16,31385,dense_right,p,1,False,110,18.0,18.0
sub_59,1,dense_right,555.0,img/object-9_120-levels_1D/object9F0Level107F1Level40.png,q,exemplar_display,18,34026,dense_right,p,1,False,108,-2.0,2.0
sub_59,1,dense_right,528.0,img/object-9_120-levels_1D/object9F0Level45F1Level40.png,p,exemplar_display,20,36650,dense_right,p,1,True,46,-62.0,62.0
sub_59,1,dense_right,721.0,img/object-9_120-levels_1D/object9F0Level99F1Level40.png,q,exemplar_display,22,39277,dense_right,p,1,False,100,54.0,54.0
sub_59,1,dense_right,903.0,img/object-9_120-levels_1D/object9F0Level29F1Level40.png,p,exemplar_display,24,41901,dense_right,p,1,True,30,-70.0,70.0
sub_59,1,dense_right,669.0,img/object-9_120-levels_1D/object9F0Level87F1Level40.png,p,exemplar_display,26,44541,dense_right,p,1,True,88,58.0,58.0
sub_59,1,dense_right,503.0,img/object-9_120-levels_1D/object9F0Level93F1Level40.png,q,exemplar_display,28,47182,dense_right,p,1,False,94,6.0,6.0
sub_59,1,dense_right,553.0,img/object-9_120-levels_1D/object9F0Level93F1Level40.png,q,exemplar_display,30,49713,dense_right,q,1,True,94,0.0,0.0
sub_59,1,dense_right,562.0,img/object-9_120-levels_1D/object9F0Level95F1Level40.png,q,exemplar_display,32,52354,dense_right,p,1,False,96,2.0,2.0
sub_59,1,dense_right,1028.0,img/object-9_120-levels_1D/object9F0Level73F1Level40.png,p,exemplar_display,34,54994,dense_right,p,1,True,74,-22.0,22.0
sub_59,1,dense_right,900.0,img/object-9_120-levels_1D/object9F0Level95F1Level40.png,p,exemplar_display,36,57526,dense_right,p,1,True,96,22.0,22.0
sub_59,1,dense_right,668.0,img/object-9_120-levels_1D/object9F0Level29F1Level40.png,p,exemplar_display,38,60058,dense_right,p,1,True,30,-66.0,66.0
sub_59,1,dense_right,763.0,img/object-9_120-levels_1D/object9F0Level81F1Level40.png,p,exemplar_display,40,62681,dense_right,p,1,True,82,52.0,52.0
sub_59,1,dense_right,879.0,img/object-9_120-levels_1D/object9F0Level81F1Level40.png,p,exemplar_display,42,65213,dense_right,q,1,False,82,0.0,0.0
sub_59,1,dense_right,549.0,img/object-9_120-levels_1D/object9F0Level29F1Level40.png,p,exemplar_display,44,67746,dense_right,p,1,True,30,-52.0,52.0
sub_59,1,dense_right,488.0,img/object-9_120-levels_1D/object9F0Level73F1Level40.png,p,exemplar_display,46,70275,dense_right,p,1,True,74,44.0,44.0
sub_59,1,dense_right,1363.0,img/object-9_120-levels_1D/object9F0Level85F1Level40.png,p,exemplar_display,48,72901,dense_right,p,1,True,86,12.0,12.0
sub_59,1,dense_right,851.0,img/object-9_120-levels_1D/object9F0Level85F1Level40.png,q,exemplar_display,50,75432,dense_right,q,1,True,86,0.0,0.0
sub_59,1,dense_right,744.0,img/object-9_120-levels_1D/object9F0Level53F1Level40.png,p,exemplar_display,52,78057,dense_right,p,1,True,54,-32.0,32.0
sub_59,1,dense_right,822.0,img/object-9_120-levels_1D/object9F0Level107F1Level40.png,p,exemplar_display,54,80588,dense_right,p,1,True,108,54.0,54.0
sub_59,1,dense_right,960.0,img/object-9_120-levels_1D/object9F0Level37F1Level40.png,p,exemplar_display,56,83221,dense_right,p,1,True,38,-70.0,70.0
sub_59,1,dense_right,854.0,img/object-9_120-levels_1D/object9F0Level109F1Level40.png,p,exemplar_display,58,85751,dense_right,p,1,True,110,72.0,72.0
sub_59,1,dense_right,625.0,img/object-9_120-levels_1D/object9F0Level109F1Level40.png,q,exemplar_display,60,88283,dense_right,q,1,True,110,0.0,0.0
sub_59,1,dense_right,856.0,img/object-9_120-levels_1D/object9F0Level75F1Level40.png,p,exemplar_display,62,90908,dense_right,p,1,True,76,-34.0,34.0
sub_59,1,dense_right,709.0,img/object-9_120-levels_1D/object9F0Level75F1Level40.png,q,exemplar_display,64,93438,dense_right,q,1,True,76,0.0,0.0
sub_59,1,dense_right,602.0,img/object-9_120-levels_1D/object9F0Level101F1Level40.png,p,exemplar_display,66,95970,dense_right,p,1,True,102,26.0,26.0
sub_59,1,dense_right,817.0,img/object-9_120-levels_1D/object9F0Level45F1Level40.png,p,exemplar_display,68,98502,dense_right,p,1,True,46,-56.0,56.0
sub_59,1,dense_right,1375.0,img/object-9_120-levels_1D/object9F0Level77F1Level40.png,p,exemplar_display,70,101111,dense_right,p,1,True,78,32.0,32.0
sub_59,1,dense_right,753.0,img/object-9_120-levels_1D/object9F0Level105F1Level40.png,q,exemplar_display,72,103706,dense_right,p,1,False,106,28.0,28.0
sub_59,1,dense_right,702.0,img/object-9_120-levels_1D/object9F0Level69F1Level40.png,p,exemplar_display,74,106346,dense_right,p,1,True,70,-36.0,36.0
sub_59,1,dense_right,1299.0,img/object-9_120-levels_1D/object9F0Level79F1Level40.png,q,exemplar_display,76,108877,dense_right,p,1,False,80,10.0,10.0
sub_59,1,dense_right,598.0,img/object-9_120-levels_1D/object9F0Level103F1Level40.png,p,exemplar_display,78,111408,dense_right,p,1,True,104,24.0,24.0
sub_59,1,dense_right,915.0,img/object-9_120-levels_1D/object9F0Level37F1Level40.png,p,exemplar_display,80,113940,dense_right,p,1,True,38,-66.0,66.0
sub_59,1,dense_right,1202.0,img/object-9_120-levels_1D/object9F0Level37F1Level40.png,q,exemplar_display,82,116471,dense_right,q,1,True,38,0.0,0.0
sub_59,1,dense_right,704.0,img/object-9_120-levels_1D/object9F0Level61F1Level40.png,q,exemplar_display,84,119096,dense_right,p,1,False,62,24.0,24.0
sub_59,1,dense_right,697.0,img/object-9_120-levels_1D/object9F0Level61F1Level40.png,q,exemplar_display,86,121626,dense_right,q,1,True,62,0.0,0.0
sub_59,1,dense_right,781.0,img/object-9_120-levels_1D/object9F0Level99F1Level40.png,p,exemplar_display,88,124158,dense_right,p,1,True,100,38.0,38.0
sub_59,1,dense_right,1010.0,img/object-9_120-levels_1D/object9F0Level85F1Level40.png,q,exemplar_display,90,126690,dense_right,p,1,False,86,-14.0,14.0
sub_59,1,dense_right,675.0,img/object-9_120-levels_1D/object9F0Level29F1Level40.png,p,exemplar_display,92,129221,dense_right,p,1,True,30,-56.0,56.0
sub_59,1,dense_right,840.0,img/object-9_120-levels_1D/object9F0Level89F1Level40.png,q,exemplar_display,94,131846,dense_right,p,1,False,90,60.0,60.0
sub_59,1,dense_right,910.0,img/object-9_120-levels_1D/object9F0Level95F1Level40.png,q,exemplar_display,96,134486,dense_right,p,1,False,96,6.0,6.0
sub_59,1,dense_right,937.0,img/object-9_120-levels_1D/object9F0Level89F1Level40.png,q,exemplar_display,98,137018,dense_right,p,1,False,90,-6.0,6.0
sub_59,1,dense_right,643.0,img/object-9_120-levels_1D/object9F0Level89F1Level40.png,q,exemplar_display,100,139549,dense_right,q,1,True,90,0.0,0.0
sub_59,1,dense_right,578.0,img/object-9_120-levels_1D/object9F0Level85F1Level40.png,q,exemplar_display,102,142080,dense_right,p,1,False,86,-4.0,4.0
sub_59,1,dense_right,480.0,img/object-9_120-levels_1D/object9F0Level97F1Level40.png,q,exemplar_display,104,144705,dense_right,p,1,False,98,12.0,12.0
sub_59,1,dense_right,,img/object-9_120-levels_1D/object9F0Level97F1Level40.png,,exemplar_display,2,14011,dense_right,q,2,,98,0.0,0.0
sub_59,1,dense_right,960.0,img/object-9_120-levels_1D/object9F0Level75F1Level40.png,p,exemplar_display,4,16636,dense_right,p,2,True,76,-22.0,22.0
sub_59,1,dense_right,1186.0,img/object-9_120-levels_1D/object9F0Level101F1Level40.png,p,exemplar_display,6,19261,dense_right,p,2,True,102,26.0,26.0
sub_59,1,dense_right,1873.0,img/object-9_120-levels_1D/object9F0Level105F1Level40.png,q,exemplar_display,8,21870,dense_right,p,2,False,106,4.0,4.0
sub_59,1,dense_right,575.0,img/object-9_120-levels_1D/object9F0Level107F1Level40.png,q,exemplar_display,10,24481,dense_right,p,2,False,108,2.0,2.0
sub_59,1,dense_right,498.0,img/object-9_120-levels_1D/object9F0Level107F1Level40.png,q,exemplar_display,12,27011,dense_right,q,2,True,108,0.0,0.0
sub_59,1,dense_right,461.0,img/object-9_120-levels_1D/object9F0Level105F1Level40.png,q,exemplar_display,14,29535,dense_right,p,2,False,106,-2.0,2.0
sub_59,1,dense_right,574.0,img/object-9_120-levels_1D/object9F0Level77F1Level40.png,p,exemplar_display,16,32160,dense_right,p,2,True,78,-28.0,28.0
sub_59,1,dense_right,956.0,img/object-9_120-levels_1D/object9F0Level73F1Level40.png,q,exemplar_display,18,34785,dense_right,p,2,False,74,-4.0,4.0
sub_59,1,dense_right,573.0,img/object-9_120-levels_1D/object9F0Level71F1Level40.png,q,exemplar_display,20,37410,dense_right,p,2,False,72,-2.0,2.0
sub_59,1,dense_right,783.0,img/object-9_120-levels_1D/object9F0Level89F1Level40.png,p,exemplar_display,22,40036,dense_right,p,2,True,90,18.0,18.0
sub_59,1,dense_right,936.0,img/object-9_120-levels_1D/object9F0Level93F1Level40.png,q,exemplar_display,24,42662,dense_right,p,2,False,94,4.0,4.0
sub_59,1,dense_right,756.0,img/object-9_120-levels_1D/object9F0Level91F1Level40.png,q,exemplar_display,26,45301,dense_right,p,2,False,92,-2.0,2.0
sub_59,1,dense_right,449.0,img/object-9_120-levels_1D/object9F0Level99F1Level40.png,q,exemplar_display,28,47864,dense_right,p,2,False,100,8.0,8.0
sub_59,1,dense_right,1212.0,img/object-9_120-levels_1D/object9F0Level37F1Level40.png,p,exemplar_display,30,50489,dense_right,p,2,True,38,-62.0,62.0
sub_59,1,dense_right,844.0,img/object-9_120-levels_1D/object9F0Level109F1Level40.png,p,exemplar_display,32,53098,dense_right,p,2,True,110,72.0,72.0
sub_59,1,dense_right,1859.0,img/object-9_120-levels_1D/object9F0Level97F1Level40.png,p,exemplar_display,34,55629,dense_right,p,2,True,98,-12.0,12.0
sub_59,1,dense_right,1537.0,img/object-9_120-levels_1D/object9F0Level99F1Level40.png,q,exemplar_display,36,58160,dense_right,p,2,False,100,2.0,2.0
sub_59,1,dense_right,586.0,img/object-9_120-levels_1D/object9F0Level99F1Level40.png,q,exemplar_display,38,60687,dense_right,q,2,True,100,0.0,0.0
sub_59,1,dense_right,1029.0,img/object-9_120-levels_1D/object9F0Level105F1Level40.png,q,exemplar_display,40,63217,dense_right,p,2,False,106,6.0,6.0
sub_59,1,dense_right,1301.0,img/object-9_120-levels_1D/object9F0Level89F1Level40.png,p,exemplar_display,42,65748,dense_right,p,2,True,90,-16.0,16.0
sub_59,1,dense_right,834.0,img/object-9_120-levels_1D/object9F0Level73F1Level40.png,p,exemplar_display,44,68280,dense_right,p,2,True,74,-16.0,16.0
sub_59,1,dense_right,686.0,img/object-9_120-levels_1D/object9F0Level71F1Level40.png,q,exemplar_display,46,70812,dense_right,p,2,False,72,-2.0,2.0
sub_59,1,dense_right,1414.0,img/object-9_120-levels_1D/object9F0Level109F1Level40.png,p,exemplar_display,48,73343,dense_right,p,2,True,110,38.0,38.0
sub_59,1,dense_right,1710.0,img/object-9_120-levels_1D/object9F0Level101F1Level40.png,p,exemplar_display,50,75874,dense_right,p,2,True,102,-8.0,8.0
sub_59,1,dense_right,549.0,img/object-9_120-levels_1D/object9F0Level97F1Level40.png,q,exemplar_display,52,78406,dense_right,p,2,False,98,-4.0,4.0
sub_59,1,dense_right,687.0,img/object-9_120-levels_1D/object9F0Level73F1Level40.png,p,exemplar_display,54,80936,dense_right,p,2,True,74,-24.0,24.0
sub_59,1,dense_right,731.0,img/object-9_120-levels_1D/object9F0Level71F1Level40.png,q,exemplar_display,56,83467,dense_right,p,2,False,72,-2.0,2.0
sub_59,1,dense_right,631.0,img/object-9_120-levels_1D/object9F0Level73F1Level40.png,q,exemplar_display,58,85999,dense_right,p,2,False,74,2.0,2.0
sub_59,1,dense_right,697.0,img/object-9_120-levels_1D/object9F0Level73F1Level40.png,q,exemplar_display,60,88530,dense_right,q,2,True,74,0.0,0.0
sub_59,1,dense_right,1014.0,img/object-9_120-levels_1D/object9F0Level81F1Level40.png,q,exemplar_display,62,91154,dense_right,p,2,False,82,8.0,8.0
sub_59,1,dense_right,789.0,img/object-9_120-levels_1D/object9F0Level105F1Level40.png,p,exemplar_display,64,93686,dense_right,p,2,True,106,24.0,24.0
sub_59,1,dense_right,1435.0,img/object-9_120-levels_1D/object9F0Level75F1Level40.png,p,exemplar_display,66,96218,dense_right,p,2,True,76,-30.0,30.0
sub_59,1,dense_right,1412.0,img/object-9_120-levels_1D/object9F0Level101F1Level40.png,p,exemplar_display,68,98749,dense_right,p,2,True,102,26.0,26.0
sub_59,1,dense_right,624.0,img/object-9_120-levels_1D/object9F0Level101F1Level40.png,q,exemplar_display,70,101280,dense_right,q,2,True,102,0.0,0.0
sub_59,1,dense_right,783.0,img/object-9_120-levels_1D/object9F0Level99F1Level40.png,q,exemplar_display,72,103811,dense_right,p,2,False,100,-2.0,2.0
sub_59,1,dense_right,489.0,img/object-9_120-levels_1D/object9F0Level99F1Level40.png,q,exemplar_display,74,106342,dense_right,q,2,True,100,0.0,0.0
sub_59,1,dense_right,656.0,img/object-9_120-levels_1D/object9F0Level87F1Level40.png,q,exemplar_display,76,108966,dense_right,p,2,False,88,-12.0,12.0
sub_59,1,dense_right,563.0,img/object-9_120-levels_1D/object9F0Level87F1Level40.png,q,exemplar_display,78,111498,dense_right,q,2,True,88,0.0,0.0
sub_59,1,dense_right,660.0,img/object-9_120-levels_1D/object9F0Level95F1Level40.png,q,exemplar_display,80,114129,dense_right,p,2,False,96,8.0,8.0
sub_59,1,dense_right,606.0,img/object-9_120-levels_1D/object9F0Level69F1Level40.png,p,exemplar_display,82,116754,dense_right,p,2,True,70,-26.0,26.0
sub_59,1,dense_right,721.0,img/object-9_120-levels_1D/object9F0Level83F1Level40.png,p,exemplar_display,84,119381,dense_right,p,2,True,84,14.0,14.0
sub_59,1,dense_right,948.0,img/object-9_120-levels_1D/object9F0Level83F1Level40.png,q,exemplar_display,86,121912,dense_right,q,2,True,84,0.0,0.0
sub_59,1,dense_right,749.0,img/object-9_120-levels_1D/object9F0Level37F1Level40.png,p,exemplar_display,88,124443,dense_right,p,2,True,38,-46.0,46.0
sub_59,1,dense_right,947.0,img/object-9_120-levels_1D/object9F0Level37F1Level40.png,q,exemplar_display,90,126975,dense_right,q,2,True,38,0.0,0.0
sub_59,1,dense_right,861.0,img/object-9_120-levels_1D/object9F0Level79F1Level40.png,p,exemplar_display,92,129600,dense_right,p,2,True,80,42.0,42.0
sub_59,1,dense_right,1385.0,img/object-9_120-levels_1D/object9F0Level105F1Level40.png,p,exemplar_display,94,132131,dense_right,p,2,True,106,26.0,26.0
sub_59,1,dense_right,843.0,img/object-9_120-levels_1D/object9F0Level105F1Level40.png,q,exemplar_display,96,134663,dense_right,q,2,True,106,0.0,0.0
sub_59,1,dense_right,732.0,img/object-9_120-levels_1D/object9F0Level71F1Level40.png,p,exemplar_display,98,137194,dense_right,p,2,True,72,-34.0,34.0
sub_59,1,dense_right,1427.0,img/object-9_120-levels_1D/object9F0Level53F1Level40.png,p,exemplar_display,100,139787,dense_right,p,2,True,54,-18.0,18.0
sub_59,1,dense_right,1203.0,img/object-9_120-levels_1D/object9F0Level93F1Level40.png,p,exemplar_display,102,142413,dense_right,p,2,True,94,40.0,40.0
sub_59,1,dense_right,1307.0,img/object-9_120-levels_1D/object9F0Level79F1Level40.png,q,exemplar_display,104,144937,dense_right,p,2,False,80,-14.0,14.0
sub_59,1,dense_right,,img/object-9_120-levels_1D/object9F0Level97F1Level40.png,,exemplar_display,2,12870,dense_right,p,3,,98,18.0,18.0
sub_59,1,dense_right,700.0,img/object-9_120-levels_1D/object9F0Level61F1Level40.png,p,exemplar_display,4,15495,dense_right,p,3,True,62,-36.0,36.0
sub_59,1,dense_right,947.0,img/object-9_120-levels_1D/object9F0Level99F1Level40.png,p,exemplar_display,6,18120,dense_right,p,3,True,100,38.0,38.0
sub_59,1,dense_right,1033.0,img/object-9_120-levels_1D/object9F0Level61F1Level40.png,p,exemplar_display,8,20651,dense_right,p,3,True,62,-38.0,38.0
sub_59,1,dense_right,939.0,img/object-9_120-levels_1D/object9F0Level109F1Level40.png,p,exemplar_display,10,23276,dense_right,p,3,True,110,48.0,48.0
sub_59,1,dense_right,1626.0,img/object-9_120-levels_1D/object9F0Level77F1Level40.png,p,exemplar_display,12,25854,dense_right,p,3,True,78,-32.0,32.0
sub_59,1,dense_right,721.0,img/object-9_120-levels_1D/object9F0Level77F1Level40.png,q,exemplar_display,14,28385,dense_right,q,3,True,78,0.0,0.0
sub_59,1,dense_right,998.0,img/object-9_120-levels_1D/object9F0Level37F1Level40.png,p,exemplar_display,16,31010,dense_right,p,3,True,38,-40.0,40.0
sub_59,1,dense_right,872.0,img/object-9_120-levels_1D/object9F0Level105F1Level40.png,p,exemplar_display,18,33636,dense_right,p,3,True,106,68.0,68.0
sub_59,1,dense_right,714.0,img/object-9_120-levels_1D/object9F0Level29F1Level40.png,p,exemplar_display,20,36260,dense_right,p,3,True,30,-76.0,76.0
sub_59,1,dense_right,540.0,img/object-9_120-levels_1D/object9F0Level87F1Level40.png,p,exemplar_display,22,38869,dense_right,p,3,True,88,58.0,58.0
sub_59,1,dense_right,376.0,img/object-9_120-levels_1D/object9F0Level85F1Level40.png,q,exemplar_display,24,41495,dense_right,p,3,False,86,-2.0,2.0
sub_59,1,dense_right,738.0,img/object-9_120-levels_1D/object9F0Level103F1Level40.png,q,exemplar_display,26,44120,dense_right,p,3,False,104,18.0,18.0
sub_59,1,dense_right,642.0,img/object-9_120-levels_1D/object9F0Level83F1Level40.png,q,exemplar_display,28,46746,dense_right,p,3,False,84,-20.0,20.0
sub_59,1,dense_right,742.0,img/object-9_120-levels_1D/object9F0Level103F1Level40.png,q,exemplar_display,30,49276,dense_right,p,3,False,104,20.0,20.0
sub_59,1,dense_right,653.0,img/object-9_120-levels_1D/object9F0Level45F1Level40.png,p,exemplar_display,32,51870,dense_right,p,3,True,46,-58.0,58.0
sub_59,1,dense_right,1410.0,img/object-9_120-levels_1D/object9F0Level89F1Level40.png,p,exemplar_display,34,54495,dense_right,p,3,True,90,44.0,44.0
sub_59,1,dense_right,709.0,img/object-9_120-levels_1D/object9F0Level89F1Level40.png,q,exemplar_display,36,57027,dense_right,q,3,True,90,0.0,0.0
sub_59,1,dense_right,664.0,img/object-9_120-levels_1D/object9F0Level85F1Level40.png,q,exemplar_display,38,59558,dense_right,p,3,False,86,-4.0,4.0
sub_59,1,dense_right,775.0,img/object-9_120-levels_1D/object9F0Level91F1Level40.png,q,exemplar_display,40,62181,dense_right,p,3,False,92,6.0,6.0
sub_59,1,dense_right,864.0,img/object-9_120-levels_1D/object9F0Level61F1Level40.png,q,exemplar_display,42,64712,dense_right,p,3,False,62,-30.0,30.0
sub_59,1,dense_right,833.0,img/object-9_120-levels_1D/object9F0Level81F1Level40.png,q,exemplar_display,44,67337,dense_right,p,3,False,82,20.0,20.0
sub_59,1,dense_right,874.0,img/object-9_120-levels_1D/object9F0Level95F1Level40.png,p,exemplar_display,46,69931,dense_right,p,3,True,96,14.0,14.0
sub_59,1,dense_right,1072.0,img/object-9_120-levels_1D/object9F0Level77F1Level40.png,p,exemplar_display,48,72455,dense_right,p,3,True,78,-18.0,18.0
sub_59,1,dense_right,599.0,img/object-9_120-levels_1D/object9F0Level71F1Level40.png,q,exemplar_display,50,75079,dense_right,p,3,False,72,-6.0,6.0
sub_59,1,dense_right,825.0,img/object-9_120-levels_1D/object9F0Level81F1Level40.png,q,exemplar_display,52,77608,dense_right,p,3,False,82,10.0,10.0
sub_59,1,dense_right,642.0,img/object-9_120-levels_1D/object9F0Level37F1Level40.png,p,exemplar_display,54,80138,dense_right,p,3,True,38,-44.0,44.0
sub_59,1,dense_right,636.0,img/object-9_120-levels_1D/object9F0Level87F1Level40.png,q,exemplar_display,56,82670,dense_right,p,3,False,88,50.0,50.0
sub_59,1,dense_right,1227.0,img/object-9_120-levels_1D/object9F0Level53F1Level40.png,p,exemplar_display,58,85294,dense_right,p,3,True,54,-34.0,34.0
sub_59,1,dense_right,719.0,img/object-9_120-levels_1D/object9F0Level85F1Level40.png,p,exemplar_display,60,87825,dense_right,p,3,True,86,32.0,32.0
sub_59,1,dense_right,777.0,img/object-9_120-levels_1D/object9F0Level85F1Level40.png,q,exemplar_display,62,90356,dense_right,q,3,True,86,0.0,0.0
sub_59,1,dense_right,645.0,img/object-9_120-levels_1D/object9F0Level53F1Level40.png,p,exemplar_display,64,92886,dense_right,p,3,True,54,-32.0,32.0
sub_59,1,dense_right,729.0,img/object-9_120-levels_1D/object9F0Level109F1Level40.png,p,exemplar_display,66,95509,dense_right,p,3,True,110,56.0,56.0
sub_59,1,dense_right,1168.0,img/object-9_120-levels_1D/object9F0Level91F1Level40.png,p,exemplar_display,68,98039,dense_right,p,3,True,92,-18.0,18.0
sub_59,1,dense_right,589.0,img/object-9_120-levels_1D/object9F0Level75F1Level40.png,q,exemplar_display,70,100664,dense_right,p,3,False,76,-16.0,16.0
sub_59,1,dense_right,696.0,img/object-9_120-levels_1D/object9F0Level29F1Level40.png,p,exemplar_display,72,103195,dense_right,p,3,True,30,-46.0,46.0
sub_59,1,dense_right,1156.0,img/object-9_120-levels_1D/object9F0Level77F1Level40.png,p,exemplar_display,74,105725,dense_right,p,3,True,78,48.0,48.0
sub_59,1,dense_right,560.0,img/object-9_120-levels_1D/object9F0Level77F1Level40.png,q,exemplar_display,76,108256,dense_right,q,3,True,78,0.0,0.0
sub_59,1,dense_right,684.0,img/object-9_120-levels_1D/object9F0Level107F1Level40.png,p,exemplar_display,78,110883,dense_right,p,3,True,108,30.0,30.0
sub_59,1,dense_right,805.0,img/object-9_120-levels_1D/object9F0Level71F1Level40.png,p,exemplar_display,80,113418,dense_right,p,3,True,72,-36.0,36.0
sub_59,1,dense_right,703.0,img/object-9_120-levels_1D/object9F0Level79F1Level40.png,q,exemplar_display,82,115996,dense_right,p,3,False,80,8.0,8.0
sub_59,1,dense_right,639.0,img/object-9_120-levels_1D/object9F0Level79F1Level40.png,q,exemplar_display,84,118527,dense_right,q,3,True,80,0.0,0.0
sub_59,1,dense_right,726.0,img/object-9_120-levels_1D/object9F0Level81F1Level40.png,q,exemplar_display,86,121059,dense_right,p,3,False,82,2.0,2.0
sub_59,1,dense_right,506.0,img/object-9_120-levels_1D/object9F0Level79F1Level40.png,q,exemplar_display,88,123590,dense_right,p,3,False,80,-2.0,2.0
sub_59,1,dense_right,765.0,img/object-9_120-levels_1D/object9F0Level79F1Level40.png,q,exemplar_display,90,126121,dense_right,q,3,True,80,0.0,0.0
sub_59,1,dense_right,703.0,img/object-9_120-levels_1D/object9F0Level109F1Level40.png,p,exemplar_display,92,128652,dense_right,p,3,True,110,30.0,30.0
sub_59,1,dense_right,1288.0,img/object-9_120-levels_1D/object9F0Level109F1Level40.png,q,exemplar_display,94,131184,dense_right,q,3,True,110,0.0,0.0
sub_59,1,dense_right,793.0,img/object-9_120-levels_1D/object9F0Level103F1Level40.png,q,exemplar_display,96,133714,dense_right,p,3,False,104,-6.0,6.0
sub_59,1,dense_right,560.0,img/object-9_120-levels_1D/object9F0Level103F1Level40.png,q,exemplar_display,98,136247,dense_right,q,3,True,104,0.0,0.0
sub_59,1,dense_right,575.0,img/object-9_120-levels_1D/object9F0Level107F1Level40.png,q,exemplar_display,100,138777,dense_right,p,3,False,108,4.0,4.0
sub_59,1,dense_right,823.0,img/object-9_120-levels_1D/object9F0Level89F1Level40.png,q,exemplar_display,102,141309,dense_right,p,3,False,90,-18.0,18.0
sub_59,1,dense_right,618.0,img/object-9_120-levels_1D/object9F0Level85F1Level40.png,q,exemplar_display,104,143840,dense_right,p,3,False,86,-4.0,4.0
sub_59,1,dense_right,,img/object-9_120-levels_1D/object9F0Level93F1Level40.png,,exemplar_display,2,18309,dense_right,p,4,,94,8.0,8.0
sub_59,1,dense_right,1081.0,img/object-9_120-levels_1D/object9F0Level93F1Level40.png,q,exemplar_display,4,20840,dense_right,q,4,True,94,0.0,0.0
sub_59,1,dense_right,896.0,img/object-9_120-levels_1D/object9F0Level29F1Level40.png,p,exemplar_display,6,23464,dense_right,p,4,True,30,-64.0,64.0
sub_59,1,dense_right,898.0,img/object-9_120-levels_1D/object9F0Level29F1Level40.png,q,exemplar_display,8,25996,dense_right,q,4,True,30,0.0,0.0
sub_59,1,dense_right,988.0,img/object-9_120-levels_1D/object9F0Level53F1Level40.png,q,exemplar_display,10,28621,dense_right,p,4,False,54,24.0,24.0
sub_59,1,dense_right,531.0,img/object-9_120-levels_1D/object9F0Level53F1Level40.png,q,exemplar_display,12,31152,dense_right,q,4,True,54,0.0,0.0
sub_59,1,dense_right,437.0,img/object-9_120-levels_1D/object9F0Level45F1Level40.png,q,exemplar_display,14,33746,dense_right,p,4,False,46,-8.0,8.0
sub_59,1,dense_right,636.0,img/object-9_120-levels_1D/object9F0Level85F1Level40.png,p,exemplar_display,16,36371,dense_right,p,4,True,86,40.0,40.0
sub_59,1,dense_right,676.0,img/object-9_120-levels_1D/object9F0Level87F1Level40.png,p,exemplar_display,18,38996,dense_right,p,4,True,88,2.0,2.0
sub_59,1,dense_right,1970.0,img/object-9_120-levels_1D/object9F0Level61F1Level40.png,p,exemplar_display,20,41620,dense_right,p,4,True,62,-26.0,26.0
sub_59,1,dense_right,1948.0,img/object-9_120-levels_1D/object9F0Level71F1Level40.png,q,exemplar_display,22,44246,dense_right,p,4,False,72,10.0,10.0
sub_59,1,dense_right,1424.0,img/object-9_120-levels_1D/object9F0Level71F1Level40.png,q,exemplar_display,24,46778,dense_right,q,4,True,72,0.0,0.0
sub_59,1,dense_right,765.0,img/object-9_120-levels_1D/object9F0Level109F1Level40.png,p,exemplar_display,26,49404,dense_right,p,4,True,110,38.0,38.0
sub_59,1,dense_right,1083.0,img/object-9_120-levels_1D/object9F0Level83F1Level40.png,p,exemplar_display,28,52027,dense_right,p,4,True,84,-26.0,26.0
sub_59,1,dense_right,903.0,img/object-9_120-levels_1D/object9F0Level99F1Level40.png,q,exemplar_display,30,54652,dense_right,p,4,False,100,16.0,16.0
sub_59,1,dense_right,944.0,img/object-9_120-levels_1D/object9F0Level75F1Level40.png,p,exemplar_display,32,57277,dense_right,p,4,True,76,-24.0,24.0
sub_59,1,dense_right,1144.0,img/object-9_120-levels_1D/object9F0Level45F1Level40.png,p,exemplar_display,34,59809,dense_right,p,4,True,46,-30.0,30.0
sub_59,1,dense_right,965.0,img/object-9_120-levels_1D/object9F0Level103F1Level40.png,p,exemplar_display,36,62433,dense_right,p,4,True,104,58.0,58.0
sub_59,1,dense_right,1673.0,img/object-9_120-levels_1D/object9F0Level91F1Level40.png,q,exemplar_display,38,65058,dense_right,p,4,False,92,-12.0,12.0
sub_59,1,dense_right,602.0,img/object-9_120-levels_1D/object9F0Level91F1Level40.png,q,exemplar_display,40,67590,dense_right,q,4,True,92,0.0,0.0
sub_59,1,dense_right,519.0,img/object-9_120-levels_1D/object9F0Level103F1Level40.png,q,exemplar_display,42,70120,dense_right,p,4,False,104,12.0,12.0
sub_59,1,dense_right,444.0,img/object-9_120-levels_1D/object9F0Level103F1Level40.png,q,exemplar_display,44,72653,dense_right,q,4,True,104,0.0,0.0
sub_59,1,dense_right,674.0,img/object-9_120-levels_1D/object9F0Level73F1Level40.png,p,exemplar_display,46,75277,dense_right,p,4,True,74,-30.0,30.0
sub_59,1,dense_right,1136.0,img/object-9_120-levels_1D/object9F0Level91F1Level40.png,p,exemplar_display,48,77808,dense_right,p,4,True,92,18.0,18.0
sub_59,1,dense_right,589.0,img/object-9_120-levels_1D/object9F0Level107F1Level40.png,q,exemplar_display,50,80434,dense_right,p,4,False,108,16.0,16.0
sub_59,1,dense_right,1035.0,img/object-9_120-levels_1D/object9F0Level79F1Level40.png,p,exemplar_display,52,83059,dense_right,p,4,True,80,-28.0,28.0
sub_59,1,dense_right,981.0,img/object-9_120-levels_1D/object9F0Level81F1Level40.png,q,exemplar_display,54,85683,dense_right,p,4,False,82,2.0,2.0
sub_59,1,dense_right,697.0,img/object-9_120-levels_1D/object9F0Level81F1Level40.png,q,exemplar_display,56,88214,dense_right,q,4,True,82,0.0,0.0
sub_59,1,dense_right,559.0,img/object-9_120-levels_1D/object9F0Level93F1Level40.png,q,exemplar_display,58,90746,dense_right,p,4,False,94,12.0,12.0
sub_59,1,dense_right,1322.0,img/object-9_120-levels_1D/object9F0Level77F1Level40.png,q,exemplar_display,60,93371,dense_right,p,4,False,78,-16.0,16.0
sub_59,1,dense_right,518.0,img/object-9_120-levels_1D/object9F0Level99F1Level40.png,q,exemplar_display,62,95902,dense_right,p,4,False,100,22.0,22.0
sub_59,1,dense_right,655.0,img/object-9_120-levels_1D/object9F0Level107F1Level40.png,q,exemplar_display,64,98434,dense_right,p,4,False,108,8.0,8.0
sub_59,1,dense_right,554.0,img/object-9_120-levels_1D/object9F0Level105F1Level40.png,q,exemplar_display,66,101058,dense_right,p,4,False,106,-2.0,2.0
sub_59,1,dense_right,1201.0,img/object-9_120-levels_1D/object9F0Level69F1Level40.png,p,exemplar_display,68,103701,dense_right,p,4,True,70,-36.0,36.0
sub_59,1,dense_right,1210.0,img/object-9_120-levels_1D/object9F0Level37F1Level40.png,q,exemplar_display,70,106324,dense_right,p,4,False,38,-32.0,32.0
sub_59,1,dense_right,1324.0,img/object-9_120-levels_1D/object9F0Level75F1Level40.png,p,exemplar_display,72,108856,dense_right,p,4,True,76,38.0,38.0
sub_59,1,dense_right,697.0,img/object-9_120-levels_1D/object9F0Level95F1Level40.png,q,exemplar_display,74,111480,dense_right,p,4,False,96,20.0,20.0
sub_59,1,dense_right,591.0,img/object-9_120-levels_1D/object9F0Level95F1Level40.png,q,exemplar_display,76,114011,dense_right,q,4,True,96,0.0,0.0
sub_59,1,dense_right,652.0,img/object-9_120-levels_1D/object9F0Level69F1Level40.png,p,exemplar_display,78,116543,dense_right,p,4,True,70,-26.0,26.0
sub_59,1,dense_right,1124.0,img/object-9_120-levels_1D/object9F0Level69F1Level40.png,q,exemplar_display,80,119074,dense_right,q,4,True,70,0.0,0.0
sub_59,1,dense_right,975.0,img/object-9_120-levels_1D/object9F0Level97F1Level40.png,p,exemplar_display,82,121699,dense_right,p,4,True,98,28.0,28.0
sub_59,1,dense_right,1201.0,img/object-9_120-levels_1D/object9F0Level79F1Level40.png,q,exemplar_display,84,124230,dense_right,p,4,False,80,-18.0,18.0
sub_59,1,dense_right,625.0,img/object-9_120-levels_1D/object9F0Level53F1Level40.png,p,exemplar_display,86,126855,dense_right,p,4,True,54,-26.0,26.0
sub_59,1,dense_right,1230.0,img/object-9_120-levels_1D/object9F0Level91F1Level40.png,p,exemplar_display,88,129378,dense_right,p,4,True,92,38.0,38.0
sub_59,1,dense_right,729.0,img/object-9_120-levels_1D/object9F0Level91F1Level40.png,q,exemplar_display,90,131909,dense_right,q,4,True,92,0.0,0.0
sub_59,1,dense_right,643.0,img/object-9_120-levels_1D/object9F0Level69F1Level40.png,p,exemplar_display,92,134440,dense_right,p,4,True,70,-22.0,22.0
sub_59,1,dense_right,596.0,img/object-9_120-levels_1D/object9F0Level101F1Level40.png,q,exemplar_display,94,137018,dense_right,p,4,False,102,32.0,32.0
sub_59,1,dense_right,619.0,img/object-9_120-levels_1D/object9F0Level95F1Level40.png,q,exemplar_display,96,139550,dense_right,p,4,False,96,-6.0,6.0
sub_59,1,dense_right,578.0,img/object-9_120-levels_1D/object9F0Level95F1Level40.png,q,exemplar_display,98,142083,dense_right,q,4,True,96,0.0,0.0
sub_59,1,dense_right,546.0,img/object-9_120-levels_1D/object9F0Level93F1Level40.png,q,exemplar_display,100,144612,dense_right,p,4,False,94,-2.0,2.0
sub_59,1,dense_right,908.0,img/object-9_120-levels_1D/object9F0Level83F1Level40.png,q,exemplar_display,102,147143,dense_right,p,4,False,84,-10.0,10.0
sub_59,1,dense_right,571.0,img/object-9_120-levels_1D/object9F0Level83F1Level40.png,q,exemplar_display,104,149674,dense_right,q,4,True,84,0.0,0.0
sub_59,1,dense_right,,img/object-9_120-levels_1D/object9F0Level69F1Level40.png,,exemplar_display,2,13537,dense_right,p,5,,70,-14.0,14.0
sub_59,1,dense_right,459.0,img/object-9_120-levels_1D/object9F0Level61F1Level40.png,q,exemplar_display,4,16100,dense_right,p,5,False,62,-8.0,8.0
sub_59,1,dense_right,867.0,img/object-9_120-levels_1D/object9F0Level87F1Level40.png,p,exemplar_display,6,18662,dense_right,p,5,True,88,26.0,26.0
sub_59,1,dense_right,642.0,img/object-9_120-levels_1D/object9F0Level87F1Level40.png,q,exemplar_display,8,21193,dense_right,q,5,True,88,0.0,0.0
sub_59,1,dense_right,764.0,img/object-9_120-levels_1D/object9F0Level53F1Level40.png,p,exemplar_display,10,23773,dense_right,p,5,True,54,-34.0,34.0
sub_59,1,dense_right,678.0,img/object-9_120-levels_1D/object9F0Level45F1Level40.png,p,exemplar_display,12,26351,dense_right,p,5,True,46,-8.0,8.0
sub_59,1,dense_right,1317.0,img/object-9_120-levels_1D/object9F0Level69F1Level40.png,q,exemplar_display,14,28881,dense_right,p,5,False,70,24.0,24.0
sub_59,1,dense_right,629.0,img/object-9_120-levels_1D/object9F0Level69F1Level40.png,q,exemplar_display,16,31412,dense_right,q,5,True,70,0.0,0.0
sub_59,1,dense_right,1276.0,img/object-9_120-levels_1D/object9F0Level45F1Level40.png,q,exemplar_display,18,33944,dense_right,p,5,False,46,-24.0,24.0
sub_59,1,dense_right,725.0,img/object-9_120-levels_1D/object9F0Level45F1Level40.png,q,exemplar_display,20,36475,dense_right,q,5,True,46,0.0,0.0
sub_59,1,dense_right,1442.0,img/object-9_120-levels_1D/object9F0Level89F1Level40.png,p,exemplar_display,22,39100,dense_right,p,5,True,90,44.0,44.0
sub_59,1,dense_right,752.0,img/object-9_120-levels_1D/object9F0Level81F1Level40.png,q,exemplar_display,24,41725,dense_right,p,5,False,82,-8.0,8.0
sub_59,1,dense_right,1038.0,img/object-9_120-levels_1D/object9F0Level45F1Level40.png,p,exemplar_display,26,44257,dense_right,p,5,True,46,-36.0,36.0
sub_59,1,dense_right,529.0,img/object-9_120-levels_1D/object9F0Level45F1Level40.png,q,exemplar_display,28,46789,dense_right,q,5,True,46,0.0,0.0
sub_59,1,dense_right,850.0,img/object-9_120-levels_1D/object9F0Level95F1Level40.png,p,exemplar_display,30,49413,dense_right,p,5,True,96,50.0,50.0
sub_59,1,dense_right,621.0,img/object-9_120-levels_1D/object9F0Level93F1Level40.png,q,exemplar_display,32,52038,dense_right,p,5,False,94,-2.0,2.0
sub_59,1,dense_right,480.0,img/object-9_120-levels_1D/object9F0Level107F1Level40.png,q,exemplar_display,34,54632,dense_right,p,5,False,108,14.0,14.0
sub_59,1,dense_right,500.0,img/object-9_120-levels_1D/object9F0Level107F1Level40.png,q,exemplar_display,36,57162,dense_right,q,5,True,108,0.0,0.0
sub_59,1,dense_right,848.0,img/object-9_120-levels_1D/object9F0Level69F1Level40.png,p,exemplar_display,38,59695,dense_right,p,5,True,70,-38.0,38.0
sub_59,1,dense_right,973.0,img/object-9_120-levels_1D/object9F0Level61F1Level40.png,q,exemplar_display,40,62226,dense_right,p,5,False,62,-8.0,8.0
sub_59,1,dense_right,888.0,img/object-9_120-levels_1D/object9F0Level77F1Level40.png,q,exemplar_display,42,64803,dense_right,p,5,False,78,16.0,16.0
sub_59,1,dense_right,827.0,img/object-9_120-levels_1D/object9F0Level105F1Level40.png,p,exemplar_display,44,67428,dense_right,p,5,True,106,28.0,28.0
sub_59,1,dense_right,955.0,img/object-9_120-levels_1D/object9F0Level53F1Level40.png,p,exemplar_display,46,69960,dense_right,p,5,True,54,-52.0,52.0
sub_59,1,dense_right,1919.0,img/object-9_120-levels_1D/object9F0Level87F1Level40.png,p,exemplar_display,48,72492,dense_right,p,5,True,88,34.0,34.0
sub_59,1,dense_right,1176.0,img/object-9_120-levels_1D/object9F0Level71F1Level40.png,p,exemplar_display,50,75116,dense_right,p,5,True,72,-16.0,16.0
sub_59,1,dense_right,628.0,img/object-9_120-levels_1D/object9F0Level71F1Level40.png,q,exemplar_display,52,77647,dense_right,q,5,True,72,0.0,0.0
sub_59,1,dense_right,723.0,img/object-9_120-levels_1D/object9F0Level53F1Level40.png,p,exemplar_display,54,80179,dense_right,p,5,True,54,-18.0,18.0
sub_59,1,dense_right,1209.0,img/object-9_120-levels_1D/object9F0Level77F1Level40.png,p,exemplar_display,56,82710,dense_right,p,5,True,78,24.0,24.0
sub_59,1,dense_right,740.0,img/object-9_120-levels_1D/object9F0Level81F1Level40.png,q,exemplar_display,58,85241,dense_right,p,5,False,82,4.0,4.0
sub_59,1,dense_right,717.0,img/object-9_120-levels_1D/object9F0Level87F1Level40.png,q,exemplar_display,60,87772,dense_right,p,5,False,88,6.0,6.0
sub_59,1,dense_right,822.0,img/object-9_120-levels_1D/object9F0Level91F1Level40.png,q,exemplar_display,62,90397,dense_right,p,5,False,92,4.0,4.0
sub_59,1,dense_right,698.0,img/object-9_120-levels_1D/object9F0Level37F1Level40.png,p,exemplar_display,64,93023,dense_right,p,5,True,38,-54.0,54.0
sub_59,1,dense_right,790.0,img/object-9_120-levels_1D/object9F0Level97F1Level40.png,p,exemplar_display,66,95646,dense_right,p,5,True,98,60.0,60.0
sub_59,1,dense_right,1277.0,img/object-9_120-levels_1D/object9F0Level83F1Level40.png,p,exemplar_display,68,98273,dense_right,p,5,True,84,-14.0,14.0
sub_59,1,dense_right,1400.0,img/object-9_120-levels_1D/object9F0Level97F1Level40.png,q,exemplar_display,70,100803,dense_right,p,5,False,98,14.0,14.0
sub_59,1,dense_right,665.0,img/object-9_120-levels_1D/object9F0Level97F1Level40.png,q,exemplar_display,72,103334,dense_right,q,5,True,98,0.0,0.0
sub_59,1,dense_right,545.0,img/object-9_120-levels_1D/object9F0Level101F1Level40.png,q,exemplar_display,74,105959,dense_right,p,5,False,102,4.0,4.0
sub_59,1,dense_right,684.0,img/object-9_120-levels_1D/object9F0Level29F1Level40.png,p,exemplar_display,76,108585,dense_right,p,5,True,30,-72.0,72.0
sub_59,1,dense_right,1578.0,img/object-9_120-levels_1D/object9F0Level61F1Level40.png,q,exemplar_display,78,111115,dense_right,p,5,False,62,32.0,32.0
sub_59,1,dense_right,559.0,img/object-9_120-levels_1D/object9F0Level61F1Level40.png,q,exemplar_display,80,113647,dense_right,q,5,True,62,0.0,0.0
sub_59,1,dense_right,1085.0,img/object-9_120-levels_1D/object9F0Level73F1Level40.png,p,exemplar_display,82,116272,dense_right,p,5,True,74,12.0,12.0
sub_59,1,dense_right,613.0,img/object-9_120-levels_1D/object9F0Level73F1Level40.png,q,exemplar_display,84,118805,dense_right,q,5,True,74,0.0,0.0
sub_59,1,dense_right,610.0,img/object-9_120-levels_1D/object9F0Level103F1Level40.png,p,exemplar_display,86,121429,dense_right,p,5,True,104,30.0,30.0
sub_59,1,dense_right,576.0,img/object-9_120-levels_1D/object9F0Level97F1Level40.png,q,exemplar_display,88,123960,dense_right,p,5,False,98,-6.0,6.0
sub_59,1,dense_right,711.0,img/object-9_120-levels_1D/object9F0Level89F1Level40.png,q,exemplar_display,90,126569,dense_right,p,5,False,90,-8.0,8.0
sub_59,1,dense_right,543.0,img/object-9_120-levels_1D/object9F0Level83F1Level40.png,q,exemplar_display,92,129100,dense_right,p,5,False,84,-6.0,6.0
sub_59,1,dense_right,502.0,img/object-9_120-levels_1D/object9F0Level29F1Level40.png,p,exemplar_display,94,131632,dense_right,p,5,True,30,-54.0,54.0
sub_59,1,dense_right,766.0,img/object-9_120-levels_1D/object9F0Level75F1Level40.png,q,exemplar_display,96,134256,dense_right,p,5,False,76,46.0,46.0
sub_59,1,dense_right,867.0,img/object-9_120-levels_1D/object9F0Level93F1Level40.png,q,exemplar_display,98,136881,dense_right,p,5,False,94,18.0,18.0
sub_59,1,dense_right,686.0,img/object-9_120-levels_1D/object9F0Level75F1Level40.png,q,exemplar_display,100,139412,dense_right,p,5,False,76,-18.0,18.0
sub_59,1,dense_right,592.0,img/object-9_120-levels_1D/object9F0Level75F1Level40.png,q,exemplar_display,102,141944,dense_right,q,5,True,76,0.0,0.0
sub_59,1,dense_right,1740.0,img/object-9_120-levels_1D/object9F0Level101F1Level40.png,p,exemplar_display,104,144475,dense_right,p,5,True,102,26.0,26.0
sub_60,1,dense_left,,img/object-9_120-levels_1D/object9F0Level39F1Level40.png,,exemplar_display,2,28930,dense_left,,1,,40,,
sub_60,1,dense_left,599.6000000238419,img/object-9_120-levels_1D/object9F0Level101F1Level40.png,p,exemplar_display,4,31448,dense_left,p,1,True,102,62.0,62.0
sub_60,1,dense_left,1351.8999999761581,img/object-9_120-levels_1D/object9F0Level33F1Level40.png,p,exemplar_display,6,33968,dense_left,p,1,True,34,-68.0,68.0
sub_60,1,dense_left,697.7000000476837,img/object-9_120-levels_1D/object9F0Level37F1Level40.png,q,exemplar_display,8,36476,dense_left,p,1,False,38,4.0,4.0
sub_60,1,dense_left,601.8999999761581,img/object-9_120-levels_1D/object9F0Level45F1Level40.png,q,exemplar_display,10,38986,dense_left,p,1,False,46,8.0,8.0
sub_60,1,dense_left,572.7999999523163,img/object-9_120-levels_1D/object9F0Level109F1Level40.png,p,exemplar_display,12,41514,dense_left,p,1,True,110,64.0,64.0
sub_60,1,dense_left,658.0,img/object-9_120-levels_1D/object9F0Level77F1Level40.png,p,exemplar_display,14,44031,dense_left,p,1,True,78,-32.0,32.0
sub_60,1,dense_left,699.1000000238419,img/object-9_120-levels_1D/object9F0Level77F1Level40.png,q,exemplar_display,16,46555,dense_left,q,1,True,78,0.0,0.0
sub_60,1,dense_left,974.1000000238419,img/object-9_120-levels_1D/object9F0Level77F1Level40.png,q,exemplar_display,18,49070,dense_left,q,1,True,78,0.0,0.0
sub_60,1,dense_left,1034.7000000476837,img/object-9_120-levels_1D/object9F0Level31F1Level40.png,p,exemplar_display,20,51594,dense_left,p,1,True,32,-46.0,46.0
sub_60,1,dense_left,1268.3000000715256,img/object-9_120-levels_1D/object9F0Level43F1Level40.png,q,exemplar_display,22,54109,dense_left,p,1,False,44,12.0,12.0
sub_60,1,dense_left,755.1000000238419,img/object-9_120-levels_1D/object9F0Level69F1Level40.png,p,exemplar_display,24,56631,dense_left,p,1,True,70,26.0,26.0
sub_60,1,dense_left,1129.2999999523163,img/object-9_120-levels_1D/object9F0Level67F1Level40.png,q,exemplar_display,26,59150,dense_left,p,1,False,68,-2.0,2.0
sub_60,1,dense_left,643.5,img/object-9_120-levels_1D/object9F0Level29F1Level40.png,p,exemplar_display,28,61673,dense_left,p,1,True,30,-38.0,38.0
sub_60,1,dense_left,808.0,img/object-9_120-levels_1D/object9F0Level67F1Level40.png,p,exemplar_display,30,64187,dense_left,p,1,True,68,38.0,38.0
sub_60,1,dense_left,674.6000000238419,img/object-9_120-levels_1D/object9F0Level55F1Level40.png,q,exemplar_display,32,66707,dense_left,p,1,False,56,-12.0,12.0
sub_60,1,dense_left,807.2999999523163,img/object-9_120-levels_1D/object9F0Level55F1Level40.png,q,exemplar_display,34,69223,dense_left,q,1,True,56,0.0,0.0
sub_60,1,dense_left,1630.6000000238419,img/object-9_120-levels_1D/object9F0Level53F1Level40.png,p,exemplar_display,36,71736,dense_left,p,1,True,54,-2.0,2.0
sub_60,1,dense_left,1031.5,img/object-9_120-levels_1D/object9F0Level55F1Level40.png,q,exemplar_display,38,74257,dense_left,p,1,False,56,2.0,2.0
sub_60,1,dense_left,1371.6000000238419,img/object-9_120-levels_1D/object9F0Level55F1Level40.png,q,exemplar_display,40,76770,dense_left,q,1,True,56,0.0,0.0
sub_60,1,dense_left,726.1000000238419,img/object-9_120-levels_1D/object9F0Level53F1Level40.png,q,exemplar_display,42,79298,dense_left,p,1,False,54,-2.0,2.0
sub_60,1,dense_left,664.3999999761581,img/object-9_120-levels_1D/object9F0Level67F1Level40.png,p,exemplar_display,44,81809,dense_left,p,1,True,68,14.0,14.0
sub_60,1,dense_left,1234.2000000476837,img/object-9_120-levels_1D/object9F0Level65F1Level40.png,p,exemplar_display,46,84317,dense_left,p,1,True,66,-2.0,2.0
sub_60,1,dense_left,1015.0,img/object-9_120-levels_1D/object9F0Level101F1Level40.png,p,exemplar_display,48,86830,dense_left,p,1,True,102,36.0,36.0
sub_60,1,dense_left,1075.0,img/object-9_120-levels_1D/object9F0Level57F1Level40.png,p,exemplar_display,50,89354,dense_left,p,1,True,58,-44.0,44.0
sub_60,1,dense_left,1075.8999999761581,img/object-9_120-levels_1D/object9F0Level33F1Level40.png,p,exemplar_display,52,91873,dense_left,p,1,True,34,-24.0,24.0
sub_60,1,dense_left,656.1000000238419,img/object-9_120-levels_1D/object9F0Level43F1Level40.png,q,exemplar_display,54,94384,dense_left,p,1,False,44,10.0,10.0
sub_60,1,dense_left,799.5,img/object-9_120-levels_1D/object9F0Level67F1Level40.png,p,exemplar_display,56,96903,dense_left,p,1,True,68,24.0,24.0
sub_60,1,dense_left,1174.1000000238419,img/object-9_120-levels_1D/object9F0Level51F1Level40.png,p,exemplar_display,58,99419,dense_left,p,1,True,52,-16.0,16.0
sub_60,1,dense_left,787.1999999284744,img/object-9_120-levels_1D/object9F0Level101F1Level40.png,p,exemplar_display,60,101929,dense_left,p,1,True,102,50.0,50.0
sub_60,1,dense_left,964.0,img/object-9_120-levels_1D/object9F0Level65F1Level40.png,p,exemplar_display,62,104439,dense_left,p,1,True,66,-36.0,36.0
sub_60,1,dense_left,729.3999999761581,img/object-9_120-levels_1D/object9F0Level61F1Level40.png,q,exemplar_display,64,106962,dense_left,p,1,False,62,-4.0,4.0
sub_60,1,dense_left,1039.3000000715256,img/object-9_120-levels_1D/object9F0Level61F1Level40.png,q,exemplar_display,66,109472,dense_left,q,1,True,62,0.0,0.0
sub_60,1,dense_left,672.2000000476837,img/object-9_120-levels_1D/object9F0Level41F1Level40.png,p,exemplar_display,68,111991,dense_left,p,1,True,42,-20.0,20.0
sub_60,1,dense_left,928.3000000715256,img/object-9_120-levels_1D/object9F0Level41F1Level40.png,q,exemplar_display,70,114502,dense_left,q,1,True,42,0.0,0.0
sub_60,1,dense_left,1117.6999999284744,img/object-9_120-levels_1D/object9F0Level51F1Level40.png,p,exemplar_display,72,117029,dense_left,p,1,True,52,10.0,10.0
sub_60,1,dense_left,600.4000000953674,img/object-9_120-levels_1D/object9F0Level45F1Level40.png,q,exemplar_display,74,119546,dense_left,p,1,False,46,-6.0,6.0
sub_60,1,dense_left,1801.5,img/object-9_120-levels_1D/object9F0Level45F1Level40.png,q,exemplar_display,76,122055,dense_left,q,1,True,46,0.0,0.0
sub_60,1,dense_left,616.0,img/object-9_120-levels_1D/object9F0Level67F1Level40.png,p,exemplar_display,78,124565,dense_left,p,1,True,68,22.0,22.0
sub_60,1,dense_left,1550.7000000476837,img/object-9_120-levels_1D/object9F0Level59F1Level40.png,p,exemplar_display,80,127087,dense_left,p,1,True,60,-8.0,8.0
sub_60,1,dense_left,973.1999999284744,img/object-9_120-levels_1D/object9F0Level93F1Level40.png,p,exemplar_display,82,129606,dense_left,p,1,True,94,34.0,34.0
sub_60,1,dense_left,988.2999999523163,img/object-9_120-levels_1D/object9F0Level77F1Level40.png,p,exemplar_display,84,132113,dense_left,p,1,True,78,-16.0,16.0
sub_60,1,dense_left,1046.3999999761581,img/object-9_120-levels_1D/object9F0Level43F1Level40.png,p,exemplar_display,86,134621,dense_left,p,1,True,44,-34.0,34.0
sub_60,1,dense_left,625.1000000238419,img/object-9_120-levels_1D/object9F0Level49F1Level40.png,q,exemplar_display,88,137137,dense_left,p,1,False,50,6.0,6.0
sub_60,1,dense_left,689.6000000238419,img/object-9_120-levels_1D/object9F0Level29F1Level40.png,p,exemplar_display,90,139651,dense_left,p,1,True,30,-20.0,20.0
sub_60,1,dense_left,956.0,img/object-9_120-levels_1D/object9F0Level47F1Level40.png,p,exemplar_display,92,142173,dense_left,p,1,True,48,18.0,18.0
sub_60,1,dense_left,1171.6999999284744,img/object-9_120-levels_1D/object9F0Level57F1Level40.png,q,exemplar_display,94,144680,dense_left,p,1,False,58,10.0,10.0
sub_60,1,dense_left,925.5,img/object-9_120-levels_1D/object9F0Level59F1Level40.png,q,exemplar_display,96,147188,dense_left,p,1,False,60,2.0,2.0
sub_60,1,dense_left,1331.2000000476837,img/object-9_120-levels_1D/object9F0Level57F1Level40.png,q,exemplar_display,98,149714,dense_left,p,1,False,58,-2.0,2.0
sub_60,1,dense_left,611.1000000238419,img/object-9_120-levels_1D/object9F0Level37F1Level40.png,p,exemplar_display,100,152226,dense_left,p,1,True,38,-20.0,20.0
sub_60,1,dense_left,780.5,img/object-9_120-levels_1D/object9F0Level37F1Level40.png,q,exemplar_display,102,154738,dense_left,q,1,True,38,0.0,0.0
sub_60,1,dense_left,695.3999999761581,img/object-9_120-levels_1D/object9F0Level57F1Level40.png,p,exemplar_display,104,157246,dense_left,p,1,True,58,20.0,20.0
sub_60,1,dense_left,,img/object-9_120-levels_1D/object9F0Level53F1Level40.png,,exemplar_display,2,34198,dense_left,p,2,,54,-4.0,4.0
sub_60,1,dense_left,927.6000000238419,img/object-9_120-levels_1D/object9F0Level61F1Level40.png,q,exemplar_display,4,36708,dense_left,p,2,False,62,8.0,8.0
sub_60,1,dense_left,821.3999999761581,img/object-9_120-levels_1D/object9F0Level61F1Level40.png,q,exemplar_display,6,39226,dense_left,q,2,True,62,0.0,0.0
sub_60,1,dense_left,2345.100000023842,img/object-9_120-levels_1D/object9F0Level65F1Level40.png,p,exemplar_display,8,42080,dense_left,p,2,True,66,4.0,4.0
sub_60,1,dense_left,846.0,img/object-9_120-levels_1D/object9F0Level49F1Level40.png,p,exemplar_display,10,44601,dense_left,p,2,True,50,-16.0,16.0
sub_60,1,dense_left,553.8999999761581,img/object-9_120-levels_1D/object9F0Level49F1Level40.png,q,exemplar_display,12,47108,dense_left,q,2,True,50,0.0,0.0
sub_60,1,dense_left,1269.1999999284744,img/object-9_120-levels_1D/object9F0Level41F1Level40.png,p,exemplar_display,14,49624,dense_left,p,2,True,42,-8.0,8.0
sub_60,1,dense_left,782.6000000238419,img/object-9_120-levels_1D/object9F0Level69F1Level40.png,p,exemplar_display,16,52143,dense_left,p,2,True,70,28.0,28.0
sub_60,1,dense_left,1262.2999999523163,img/object-9_120-levels_1D/object9F0Level39F1Level40.png,p,exemplar_display,18,54656,dense_left,p,2,True,40,-30.0,30.0
sub_60,1,dense_left,577.5,img/object-9_120-levels_1D/object9F0Level37F1Level40.png,q,exemplar_display,20,57167,dense_left,p,2,False,38,-2.0,2.0
sub_60,1,dense_left,704.5,img/object-9_120-levels_1D/object9F0Level59F1Level40.png,p,exemplar_display,22,59673,dense_left,p,2,True,60,22.0,22.0
sub_60,1,dense_left,598.6000000238419,img/object-9_120-levels_1D/object9F0Level85F1Level40.png,p,exemplar_display,24,62193,dense_left,p,2,True,86,26.0,26.0
sub_60,1,dense_left,1295.3999999761581,img/object-9_120-levels_1D/object9F0Level41F1Level40.png,p,exemplar_display,26,64710,dense_left,p,2,True,42,-44.0,44.0
sub_60,1,dense_left,1062.8999999761581,img/object-9_120-levels_1D/object9F0Level69F1Level40.png,p,exemplar_display,28,67222,dense_left,p,2,True,70,28.0,28.0
sub_60,1,dense_left,1176.3999999761581,img/object-9_120-levels_1D/object9F0Level55F1Level40.png,p,exemplar_display,30,69731,dense_left,p,2,True,56,-14.0,14.0
sub_60,1,dense_left,746.7999999523163,img/object-9_120-levels_1D/object9F0Level31F1Level40.png,p,exemplar_display,32,72251,dense_left,p,2,True,32,-24.0,24.0
sub_60,1,dense_left,973.7999999523163,img/object-9_120-levels_1D/object9F0Level85F1Level40.png,p,exemplar_display,34,74768,dense_left,p,2,True,86,54.0,54.0
sub_60,1,dense_left,635.6000000238419,img/object-9_120-levels_1D/object9F0Level33F1Level40.png,p,exemplar_display,36,77290,dense_left,p,2,True,34,-52.0,52.0
sub_60,1,dense_left,853.6999999284744,img/object-9_120-levels_1D/object9F0Level63F1Level40.png,p,exemplar_display,38,79802,dense_left,p,2,True,64,30.0,30.0
sub_60,1,dense_left,938.1000000238419,img/object-9_120-levels_1D/object9F0Level51F1Level40.png,q,exemplar_display,40,82314,dense_left,p,2,False,52,-12.0,12.0
sub_60,1,dense_left,815.0,img/object-9_120-levels_1D/object9F0Level53F1Level40.png,q,exemplar_display,42,84830,dense_left,p,2,False,54,2.0,2.0
sub_60,1,dense_left,731.2999999523163,img/object-9_120-levels_1D/object9F0Level67F1Level40.png,p,exemplar_display,44,87341,dense_left,p,2,True,68,14.0,14.0
sub_60,1,dense_left,1448.7999999523163,img/object-9_120-levels_1D/object9F0Level77F1Level40.png,q,exemplar_display,46,89853,dense_left,p,2,False,78,10.0,10.0
sub_60,1,dense_left,685.7000000476837,img/object-9_120-levels_1D/object9F0Level39F1Level40.png,p,exemplar_display,48,92373,dense_left,p,2,True,40,-38.0,38.0
sub_60,1,dense_left,630.6999999284744,img/object-9_120-levels_1D/object9F0Level39F1Level40.png,q,exemplar_display,50,94891,dense_left,q,2,True,40,0.0,0.0
sub_60,1,dense_left,746.0,img/object-9_120-levels_1D/object9F0Level29F1Level40.png,p,exemplar_display,52,97413,dense_left,p,2,True,30,-10.0,10.0
sub_60,1,dense_left,645.0,img/object-9_120-levels_1D/object9F0Level77F1Level40.png,p,exemplar_display,54,99926,dense_left,p,2,True,78,48.0,48.0
sub_60,1,dense_left,1765.9000000953674,img/object-9_120-levels_1D/object9F0Level59F1Level40.png,q,exemplar_display,56,102442,dense_left,p,2,False,60,-18.0,18.0
sub_60,1,dense_left,839.7999999523163,img/object-9_120-levels_1D/object9F0Level59F1Level40.png,q,exemplar_display,58,104962,dense_left,q,2,True,60,0.0,0.0
sub_60,1,dense_left,972.1000000238419,img/object-9_120-levels_1D/object9F0Level77F1Level40.png,p,exemplar_display,60,107485,dense_left,p,2,True,78,18.0,18.0
sub_60,1,dense_left,1210.1000000238419,img/object-9_120-levels_1D/object9F0Level61F1Level40.png,p,exemplar_display,62,110000,dense_left,p,2,True,62,-16.0,16.0
sub_60,1,dense_left,1494.0,img/object-9_120-levels_1D/object9F0Level45F1Level40.png,p,exemplar_display,64,112516,dense_left,p,2,True,46,-16.0,16.0
sub_60,1,dense_left,1439.1999999284744,img/object-9_120-levels_1D/object9F0Level55F1Level40.png,p,exemplar_display,66,115036,dense_left,p,2,True,56,10.0,10.0
sub_60,1,dense_left,768.3999999761581,img/object-9_120-levels_1D/object9F0Level59F1Level40.png,q,exemplar_display,68,117547,dense_left,p,2,False,60,4.0,4.0
sub_60,1,dense_left,858.5,img/object-9_120-levels_1D/object9F0Level57F1Level40.png,q,exemplar_display,70,120057,dense_left,p,2,False,58,-2.0,2.0
sub_60,1,dense_left,644.6000000238419,img/object-9_120-levels_1D/object9F0Level37F1Level40.png,p,exemplar_display,72,122572,dense_left,p,2,True,38,-20.0,20.0
sub_60,1,dense_left,740.7999999523163,img/object-9_120-levels_1D/object9F0Level37F1Level40.png,q,exemplar_display,74,125088,dense_left,q,2,True,38,0.0,0.0
sub_60,1,dense_left,980.3999999761581,img/object-9_120-levels_1D/object9F0Level31F1Level40.png,q,exemplar_display,76,127605,dense_left,p,2,False,32,-6.0,6.0
sub_60,1,dense_left,1219.3000000715256,img/object-9_120-levels_1D/object9F0Level31F1Level40.png,q,exemplar_display,78,130115,dense_left,q,2,True,32,0.0,0.0
sub_60,1,dense_left,542.2999999523163,img/object-9_120-levels_1D/object9F0Level93F1Level40.png,p,exemplar_display,80,132630,dense_left,p,2,True,94,62.0,62.0
sub_60,1,dense_left,1004.6000000238419,img/object-9_120-levels_1D/object9F0Level35F1Level40.png,p,exemplar_display,82,135138,dense_left,p,2,True,36,-58.0,58.0
sub_60,1,dense_left,689.7999999523163,img/object-9_120-levels_1D/object9F0Level39F1Level40.png,q,exemplar_display,84,137650,dense_left,p,2,False,40,4.0,4.0
sub_60,1,dense_left,579.0,img/object-9_120-levels_1D/object9F0Level39F1Level40.png,q,exemplar_display,86,140157,dense_left,q,2,True,40,0.0,0.0
sub_60,1,dense_left,844.0,img/object-9_120-levels_1D/object9F0Level39F1Level40.png,q,exemplar_display,88,142663,dense_left,q,2,True,40,0.0,0.0
sub_60,1,dense_left,775.6000000238419,img/object-9_120-levels_1D/object9F0Level47F1Level40.png,p,exemplar_display,90,145173,dense_left,p,2,True,48,8.0,8.0
sub_60,1,dense_left,669.5,img/object-9_120-levels_1D/object9F0Level51F1Level40.png,q,exemplar_display,92,147689,dense_left,p,2,False,52,4.0,4.0
sub_60,1,dense_left,621.7000000476837,img/object-9_120-levels_1D/object9F0Level29F1Level40.png,p,exemplar_display,94,150211,dense_left,p,2,True,30,-22.0,22.0
sub_60,1,dense_left,816.5,img/object-9_120-levels_1D/object9F0Level29F1Level40.png,q,exemplar_display,96,152725,dense_left,q,2,True,30,0.0,0.0
sub_60,1,dense_left,622.7000000476837,img/object-9_120-levels_1D/object9F0Level53F1Level40.png,p,exemplar_display,98,155241,dense_left,p,2,True,54,24.0,24.0
sub_60,1,dense_left,567.7000000476837,img/object-9_120-levels_1D/object9F0Level93F1Level40.png,p,exemplar_display,100,157752,dense_left,p,2,True,94,40.0,40.0
sub_60,1,dense_left,709.5,img/object-9_120-levels_1D/object9F0Level109F1Level40.png,p,exemplar_display,102,160260,dense_left,p,2,True,110,16.0,16.0
sub_60,1,dense_left,659.8999999761581,img/object-9_120-levels_1D/object9F0Level67F1Level40.png,p,exemplar_display,104,162772,dense_left,p,2,True,68,-42.0,42.0
sub_60,1,dense_left,,img/object-9_120-levels_1D/object9F0Level109F1Level40.png,,exemplar_display,2,31768,dense_left,p,3,,110,42.0,42.0
sub_60,1,dense_left,716.2000000476837,img/object-9_120-levels_1D/object9F0Level69F1Level40.png,p,exemplar_display,4,34294,dense_left,p,3,True,70,-40.0,40.0
sub_60,1,dense_left,506.39999997615814,img/object-9_120-levels_1D/object9F0Level69F1Level40.png,q,exemplar_display,6,36812,dense_left,q,3,True,70,0.0,0.0
sub_60,1,dense_left,603.5,img/object-9_120-levels_1D/object9F0Level57F1Level40.png,p,exemplar_display,8,39338,dense_left,p,3,True,58,-12.0,12.0
sub_60,1,dense_left,492.10000002384186,img/object-9_120-levels_1D/object9F0Level33F1Level40.png,p,exemplar_display,10,41857,dense_left,p,3,True,34,-24.0,24.0
sub_60,1,dense_left,797.6999999284744,img/object-9_120-levels_1D/object9F0Level109F1Level40.png,p,exemplar_display,12,44365,dense_left,p,3,True,110,76.0,76.0
sub_60,1,dense_left,660.5999999046326,img/object-9_120-levels_1D/object9F0Level109F1Level40.png,q,exemplar_display,14,46870,dense_left,q,3,True,110,0.0,0.0
sub_60,1,dense_left,707.3999999761581,img/object-9_120-levels_1D/object9F0Level31F1Level40.png,p,exemplar_display,16,49386,dense_left,p,3,True,32,-78.0,78.0
sub_60,1,dense_left,549.9000000953674,img/object-9_120-levels_1D/object9F0Level85F1Level40.png,p,exemplar_display,18,51905,dense_left,p,3,True,86,54.0,54.0
sub_60,1,dense_left,689.0,img/object-9_120-levels_1D/object9F0Level49F1Level40.png,p,exemplar_display,20,54424,dense_left,p,3,True,50,-36.0,36.0
sub_60,1,dense_left,816.7000000476837,img/object-9_120-levels_1D/object9F0Level59F1Level40.png,p,exemplar_display,22,56941,dense_left,p,3,True,60,10.0,10.0
sub_60,1,dense_left,774.8999999761581,img/object-9_120-levels_1D/object9F0Level85F1Level40.png,p,exemplar_display,24,59461,dense_left,p,3,True,86,26.0,26.0
sub_60,1,dense_left,1358.2999999523163,img/object-9_120-levels_1D/object9F0Level101F1Level40.png,p,exemplar_display,26,61970,dense_left,p,3,True,102,16.0,16.0
sub_60,1,dense_left,672.6000000238419,img/object-9_120-levels_1D/object9F0Level29F1Level40.png,p,exemplar_display,28,64483,dense_left,p,3,True,30,-72.0,72.0
sub_60,1,dense_left,1295.6000000238419,img/object-9_120-levels_1D/object9F0Level45F1Level40.png,p,exemplar_display,30,66990,dense_left,p,3,True,46,16.0,16.0
sub_60,1,dense_left,628.0,img/object-9_120-levels_1D/object9F0Level51F1Level40.png,q,exemplar_display,32,69502,dense_left,p,3,False,52,6.0,6.0
sub_60,1,dense_left,859.8999999761581,img/object-9_120-levels_1D/object9F0Level33F1Level40.png,p,exemplar_display,34,72014,dense_left,p,3,True,34,-18.0,18.0
sub_60,1,dense_left,629.1999999284744,img/object-9_120-levels_1D/object9F0Level33F1Level40.png,q,exemplar_display,36,74533,dense_left,q,3,True,34,0.0,0.0
sub_60,1,dense_left,661.5,img/object-9_120-levels_1D/object9F0Level51F1Level40.png,p,exemplar_display,38,77060,dense_left,p,3,True,52,18.0,18.0
sub_60,1,dense_left,493.7000000476837,img/object-9_120-levels_1D/object9F0Level51F1Level40.png,q,exemplar_display,40,79593,dense_left,q,3,True,52,0.0,0.0
sub_60,1,dense_left,570.0,img/object-9_120-levels_1D/object9F0Level63F1Level40.png,p,exemplar_display,42,82114,dense_left,p,3,True,64,12.0,12.0
sub_60,1,dense_left,858.2999999523163,img/object-9_120-levels_1D/object9F0Level41F1Level40.png,p,exemplar_display,44,84630,dense_left,p,3,True,42,-22.0,22.0
sub_60,1,dense_left,688.3999999761581,img/object-9_120-levels_1D/object9F0Level43F1Level40.png,q,exemplar_display,46,87147,dense_left,p,3,False,44,2.0,2.0
sub_60,1,dense_left,796.5,img/object-9_120-levels_1D/object9F0Level43F1Level40.png,q,exemplar_display,48,89668,dense_left,q,3,True,44,0.0,0.0
sub_60,1,dense_left,527.5,img/object-9_120-levels_1D/object9F0Level65F1Level40.png,p,exemplar_display,50,92181,dense_left,p,3,True,66,22.0,22.0
sub_60,1,dense_left,611.5,img/object-9_120-levels_1D/object9F0Level65F1Level40.png,q,exemplar_display,52,94700,dense_left,q,3,True,66,0.0,0.0
sub_60,1,dense_left,585.6999999284744,img/object-9_120-levels_1D/object9F0Level45F1Level40.png,p,exemplar_display,54,97218,dense_left,p,3,True,46,-20.0,20.0
sub_60,1,dense_left,872.0999999046326,img/object-9_120-levels_1D/object9F0Level45F1Level40.png,q,exemplar_display,56,99734,dense_left,q,3,True,46,0.0,0.0
sub_60,1,dense_left,796.4000000953674,img/object-9_120-levels_1D/object9F0Level53F1Level40.png,p,exemplar_display,58,102245,dense_left,p,3,True,54,8.0,8.0
sub_60,1,dense_left,674.1000000238419,img/object-9_120-levels_1D/object9F0Level53F1Level40.png,q,exemplar_display,60,104756,dense_left,q,3,True,54,0.0,0.0
sub_60,1,dense_left,640.4000000953674,img/object-9_120-levels_1D/object9F0Level63F1Level40.png,p,exemplar_display,62,107271,dense_left,p,3,True,64,10.0,10.0
sub_60,1,dense_left,742.6999999284744,img/object-9_120-levels_1D/object9F0Level101F1Level40.png,p,exemplar_display,64,109788,dense_left,p,3,True,102,38.0,38.0
