prolific_id,experiment,counterbalancing,query_stimulus,ref_left_stimulus,ref_right_stimulus,ref_left_y_offset,ref_right_y_offset,rt,response,trial_stage,trial_index,time_elapsed,session,correct,correct_response,query_item,ref_left,ref_right,dist_query_ref_left,dist_query_ref_right,dist_ref_left_ref_right,abs_dist_query_ref_left,abs_dist_query_ref_right,abs_dist_ref_left_ref_right,triplet_left_right_name,ref_lowdim,ref_highdim,dist_query_ref_lowdim,dist_query_ref_highdim,dist_ref_lowdim_ref_highdim,dist_abs_query_ref_lowdim,dist_abs_query_ref_highdim,dist_abs_ref_lowdim_ref_highdim,triplet_unique_name,template_distances,template_abs_distances,triplet_rep,template_distances_rep,template_abs_distances_rep,triplet_easiness,query_position,curve_type,chosen_ref_value,chosen_ref_lowdim_highdim,chose_towards_sparse,chose_towards_highdim,chosen_ref_numeric,correct_ref_lowdim_highdim,correct_ref_left_right,correct_numeric,triplet_location,density_relative_triplet_name,correct_ref_towards_dense_sparse
sub_58,1,dense_right,img/object-9_120-levels_1D/object9F0Level101F1Level40.png,img/object-9_120-levels_1D/object9F0Level85F1Level40.png,img/object-9_120-levels_1D/object9F0Level109F1Level40.png,0,0,1943.0,p,practice,1,3226,1,True,p,102,86,110,16,-8,-24,16,8,24,102_86_110,86,110,16,-8,-24,16,8,24,102_86_110,16_-8_-24,8_16_24,1,1,1,8,query_middle,convex,110.0,ref_highdim,0,1.0,2,ref_highdim,ref_right,1.0,dense_region,102_86_110,ref_towards_dense
sub_58,1,dense_right,img/object-9_120-levels_1D/object9F0Level77F1Level40.png,img/object-9_120-levels_1D/object9F0Level45F1Level40.png,img/object-9_120-levels_1D/object9F0Level109F1Level40.png,0,0,1132.0999999940395,p,practice,2,5739,1,,,78,46,110,32,-32,-64,32,32,64,78_46_110,46,110,32,-32,-64,32,32,64,78_46_110,32_-32_-64,32_32_64,1,1,1,0,query_middle,convex,110.0,ref_highdim,0,1.0,2,nan,nan,,dense_region,78_46_110,nan
sub_58,1,dense_right,img/object-9_120-levels_1D/object9F0Level45F1Level40.png,img/object-9_120-levels_1D/object9F0Level101F1Level40.png,img/object-9_120-levels_1D/object9F0Level37F1Level40.png,0,0,1808.5,p,practice,3,8247,1,True,p,46,102,38,-56,8,64,56,8,64,46_102_38,38,102,8,-56,-64,8,56,64,46_38_102,8_-56_-64,8_56_64,1,1,1,48,query_middle,concave,38.0,ref_lowdim,1,0.0,1,ref_lowdim,ref_right,1.0,sparse_region,46_38_102,ref_towards_sparse
sub_58,1,dense_right,img/object-9_120-levels_1D/object9F0Level37F1Level40.png,img/object-9_120-levels_1D/object9F0Level29F1Level40.png,img/object-9_120-levels_1D/object9F0Level101F1Level40.png,0,0,1084.5,q,practice,4,10755,1,True,q,38,30,102,8,-64,-72,8,64,72,38_30_102,30,102,8,-64,-72,8,64,72,38_30_102,8_-64_-72,8_64_72,1,1,1,56,query_middle,concave,30.0,ref_lowdim,1,0.0,1,ref_lowdim,ref_left,1.0,sparse_region,38_30_102,ref_towards_sparse
sub_58,1,dense_right,img/object-9_120-levels_1D/object9F0Level45F1Level40.png,img/object-9_120-levels_1D/object9F0Level37F1Level40.png,img/object-9_120-levels_1D/object9F0Level101F1Level40.png,0,0,836.6999999880791,q,practice,5,13263,1,True,q,46,38,102,8,-56,-64,8,56,64,46_38_102,38,102,8,-56,-64,8,56,64,46_38_102,8_-56_-64,8_56_64,2,2,2,48,query_middle,concave,38.0,ref_lowdim,1,0.0,1,ref_lowdim,ref_left,1.0,sparse_region,46_38_102,ref_towards_sparse
sub_58,1,dense_right,img/object-9_120-levels_1D/object9F0Level101F1Level40.png,img/object-9_120-levels_1D/object9F0Level93F1Level40.png,img/object-9_120-levels_1D/object9F0Level109F1Level40.png,0,0,2116.0,p,practice,6,15886,1,,,102,94,110,8,-8,-16,8,8,16,102_94_110,94,110,8,-8,-16,8,8,16,102_94_110,8_-8_-16,8_8_16,1,1,1,0,query_middle,convex,110.0,ref_highdim,0,1.0,2,nan,nan,,dense_region,102_94_110,nan
sub_58,1,dense_right,img/object-9_120-levels_1D/object9F0Level37F1Level40.png,img/object-9_120-levels_1D/object9F0Level101F1Level40.png,img/object-9_120-levels_1D/object9F0Level29F1Level40.png,0,0,1238.4000000059605,p,practice,7,18394,1,True,p,38,102,30,-64,8,72,64,8,72,38_102_30,30,102,8,-64,-72,8,64,72,38_30_102,8_-64_-72,8_64_72,2,2,2,56,query_middle,concave,30.0,ref_lowdim,1,0.0,1,ref_lowdim,ref_right,1.0,sparse_region,38_30_102,ref_towards_sparse
sub_58,1,dense_right,img/object-9_120-levels_1D/object9F0Level61F1Level40.png,img/object-9_120-levels_1D/object9F0Level101F1Level40.png,img/object-9_120-levels_1D/object9F0Level29F1Level40.png,0,0,1272.5,q,practice,8,20902,1,False,p,62,102,30,-40,32,72,40,32,72,62_102_30,30,102,32,-40,-72,32,40,72,62_30_102,32_-40_-72,32_40_72,1,1,1,8,query_middle,concave,102.0,ref_highdim,0,1.0,2,ref_lowdim,ref_right,0.0,sparse_region,62_30_102,ref_towards_sparse
sub_58,1,dense_right,img/object-9_120-levels_1D/object9F0Level37F1Level40.png,img/object-9_120-levels_1D/object9F0Level29F1Level40.png,img/object-9_120-levels_1D/object9F0Level101F1Level40.png,0,0,1060.5,q,practice,9,23407,1,True,q,38,30,102,8,-64,-72,8,64,72,38_30_102,30,102,8,-64,-72,8,64,72,38_30_102,8_-64_-72,8_64_72,3,3,3,56,query_middle,concave,30.0,ref_lowdim,1,0.0,1,ref_lowdim,ref_left,1.0,sparse_region,38_30_102,ref_towards_sparse
sub_58,1,dense_right,img/object-9_120-levels_1D/object9F0Level93F1Level40.png,img/object-9_120-levels_1D/object9F0Level109F1Level40.png,img/object-9_120-levels_1D/object9F0Level37F1Level40.png,0,0,642.2000000029802,q,practice,10,25917,1,True,q,94,110,38,-16,56,72,16,56,72,94_110_38,38,110,56,-16,-72,56,16,72,94_38_110,56_-16_-72,16_56_72,1,1,1,40,query_middle,convex,110.0,ref_highdim,0,1.0,2,ref_highdim,ref_left,1.0,dense_region,94_38_110,ref_towards_dense
sub_58,1,dense_right,img/object-9_120-levels_1D/object9F0Level37F1Level40.png,img/object-9_120-levels_1D/object9F0Level109F1Level40.png,img/object-9_120-levels_1D/object9F0Level29F1Level40.png,0,0,828.5999999940395,p,practice,11,28425,1,True,p,38,110,30,-72,8,80,72,8,80,38_110_30,30,110,8,-72,-80,8,72,80,38_30_110,8_-72_-80,8_72_80,1,1,1,64,query_middle,concave,30.0,ref_lowdim,1,0.0,1,ref_lowdim,ref_right,1.0,sparse_region,38_30_110,ref_towards_sparse
sub_58,1,dense_right,img/object-9_120-levels_1D/object9F0Level77F1Level40.png,img/object-9_120-levels_1D/object9F0Level109F1Level40.png,img/object-9_120-levels_1D/object9F0Level45F1Level40.png,0,0,633.0,q,practice,12,30932,1,,,78,110,46,-32,32,64,32,32,64,78_110_46,46,110,32,-32,-64,32,32,64,78_46_110,32_-32_-64,32_32_64,2,2,2,0,query_middle,convex,110.0,ref_highdim,0,1.0,2,nan,nan,,dense_region,78_46_110,nan
sub_58,1,dense_right,img/object-9_120-levels_1D/object9F0Level37F1Level40.png,img/object-9_120-levels_1D/object9F0Level101F1Level40.png,img/object-9_120-levels_1D/object9F0Level29F1Level40.png,0,0,701.5999999940395,p,practice,13,33441,1,True,p,38,102,30,-64,8,72,64,8,72,38_102_30,30,102,8,-64,-72,8,64,72,38_30_102,8_-64_-72,8_64_72,4,4,4,56,query_middle,concave,30.0,ref_lowdim,1,0.0,1,ref_lowdim,ref_right,1.0,sparse_region,38_30_102,ref_towards_sparse
sub_58,1,dense_right,img/object-9_120-levels_1D/object9F0Level93F1Level40.png,img/object-9_120-levels_1D/object9F0Level37F1Level40.png,img/object-9_120-levels_1D/object9F0Level109F1Level40.png,0,0,778.7999999970198,p,practice,14,35955,1,True,p,94,38,110,56,-16,-72,56,16,72,94_38_110,38,110,56,-16,-72,56,16,72,94_38_110,56_-16_-72,16_56_72,2,2,2,40,query_middle,convex,110.0,ref_highdim,0,1.0,2,ref_highdim,ref_right,1.0,dense_region,94_38_110,ref_towards_dense
sub_58,1,dense_right,img/object-9_120-levels_1D/object9F0Level61F1Level40.png,img/object-9_120-levels_1D/object9F0Level29F1Level40.png,img/object-9_120-levels_1D/object9F0Level101F1Level40.png,0,0,495.5,p,practice,15,38462,1,False,q,62,30,102,32,-40,-72,32,40,72,62_30_102,30,102,32,-40,-72,32,40,72,62_30_102,32_-40_-72,32_40_72,2,2,2,8,query_middle,concave,102.0,ref_highdim,0,1.0,2,ref_lowdim,ref_left,0.0,sparse_region,62_30_102,ref_towards_sparse
sub_58,1,dense_right,img/object-9_120-levels_1D/object9F0Level37F1Level40.png,img/object-9_120-levels_1D/object9F0Level29F1Level40.png,img/object-9_120-levels_1D/object9F0Level53F1Level40.png,0,0,669.0999999940395,q,practice,16,40976,1,True,q,38,30,54,8,-16,-24,8,16,24,38_30_54,30,54,8,-16,-24,8,16,24,38_30_54,8_-16_-24,8_16_24,1,1,2,8,query_middle,concave,30.0,ref_lowdim,1,0.0,1,ref_lowdim,ref_left,1.0,sparse_region,38_30_54,ref_towards_sparse
sub_58,1,dense_right,img/object-9_120-levels_1D/object9F0Level101F1Level40.png,img/object-9_120-levels_1D/object9F0Level109F1Level40.png,img/object-9_120-levels_1D/object9F0Level85F1Level40.png,0,0,1548.7000000029802,q,practice,17,43484,1,True,q,102,110,86,-8,16,24,8,16,24,102_110_86,86,110,16,-8,-24,16,8,24,102_86_110,16_-8_-24,8_16_24,2,2,3,8,query_middle,convex,110.0,ref_highdim,0,1.0,2,ref_highdim,ref_left,1.0,dense_region,102_86_110,ref_towards_dense
sub_58,1,dense_right,img/object-9_120-levels_1D/object9F0Level37F1Level40.png,img/object-9_120-levels_1D/object9F0Level29F1Level40.png,img/object-9_120-levels_1D/object9F0Level109F1Level40.png,0,0,765.5999999940395,q,practice,18,45997,1,True,q,38,30,110,8,-72,-80,8,72,80,38_30_110,30,110,8,-72,-80,8,72,80,38_30_110,8_-72_-80,8_72_80,2,2,2,64,query_middle,concave,30.0,ref_lowdim,1,0.0,1,ref_lowdim,ref_left,1.0,sparse_region,38_30_110,ref_towards_sparse
sub_58,1,dense_right,img/object-9_120-levels_1D/object9F0Level101F1Level40.png,img/object-9_120-levels_1D/object9F0Level109F1Level40.png,img/object-9_120-levels_1D/object9F0Level93F1Level40.png,0,0,1382.0,p,practice,19,48505,1,,,102,110,94,-8,8,16,8,8,16,102_110_94,94,110,8,-8,-16,8,8,16,102_94_110,8_-8_-16,8_8_16,2,2,2,0,query_middle,convex,94.0,ref_lowdim,1,0.0,1,nan,nan,,dense_region,102_94_110,nan
sub_58,1,dense_right,img/object-9_120-levels_1D/object9F0Level37F1Level40.png,img/object-9_120-levels_1D/object9F0Level53F1Level40.png,img/object-9_120-levels_1D/object9F0Level29F1Level40.png,0,0,1371.7000000029802,p,practice,20,51012,1,True,p,38,54,30,-16,8,24,16,8,24,38_54_30,30,54,8,-16,-24,8,16,24,38_30_54,8_-16_-24,8_16_24,2,2,4,8,query_middle,concave,30.0,ref_lowdim,1,0.0,1,ref_lowdim,ref_right,1.0,sparse_region,38_30_54,ref_towards_sparse
sub_58,1,dense_right,img/object-9_120-levels_1D/object9F0Level69F1Level40.png,img/object-9_120-levels_1D/object9F0Level93F1Level40.png,img/object-9_120-levels_1D/object9F0Level61F1Level40.png,0,0,1523.7000000029802,p,pre_exposure,1,3299,1,True,p,70,94,62,-24,8,32,24,8,32,70_94_62,62,94,8,-24,-32,8,24,32,70_62_94,8_-24_-32,8_24_32,1,1,1,16,query_middle,across_convexity,62.0,ref_lowdim,1,0.0,1,ref_lowdim,ref_right,1.0,across_density_regions,70_62_94,ref_towards_sparse
sub_58,1,dense_right,img/object-9_120-levels_1D/object9F0Level37F1Level40.png,img/object-9_120-levels_1D/object9F0Level29F1Level40.png,img/object-9_120-levels_1D/object9F0Level61F1Level40.png,0,0,933.7999999970198,q,pre_exposure,2,5812,1,True,q,38,30,62,8,-24,-32,8,24,32,38_30_62,30,62,8,-24,-32,8,24,32,38_30_62,8_-24_-32,8_24_32,1,2,2,16,query_middle,concave,30.0,ref_lowdim,1,0.0,1,ref_lowdim,ref_left,1.0,sparse_region,38_30_62,ref_towards_sparse
sub_58,1,dense_right,img/object-9_120-levels_1D/object9F0Level69F1Level40.png,img/object-9_120-levels_1D/object9F0Level53F1Level40.png,img/object-9_120-levels_1D/object9F0Level93F1Level40.png,0,0,1516.0999999940395,p,pre_exposure,3,8325,1,False,q,70,54,94,16,-24,-40,16,24,40,70_54_94,54,94,16,-24,-40,16,24,40,70_54_94,16_-24_-40,16_24_40,1,1,1,8,query_middle,across_convexity,94.0,ref_highdim,0,1.0,2,ref_lowdim,ref_left,0.0,across_density_regions,70_54_94,ref_towards_sparse
sub_58,1,dense_right,img/object-9_120-levels_1D/object9F0Level45F1Level40.png,img/object-9_120-levels_1D/object9F0Level29F1Level40.png,img/object-9_120-levels_1D/object9F0Level69F1Level40.png,0,0,675.3999999910593,q,pre_exposure,4,10833,1,True,q,46,30,70,16,-24,-40,16,24,40,46_30_70,30,70,16,-24,-40,16,24,40,46_30_70,16_-24_-40,16_24_40,1,2,2,8,query_middle,concave,30.0,ref_lowdim,1,0.0,1,ref_lowdim,ref_left,1.0,sparse_region,46_30_70,ref_towards_sparse
sub_58,1,dense_right,img/object-9_120-levels_1D/object9F0Level101F1Level40.png,img/object-9_120-levels_1D/object9F0Level109F1Level40.png,img/object-9_120-levels_1D/object9F0Level85F1Level40.png,0,0,1608.0999999940395,q,pre_exposure,5,13341,1,True,q,102,110,86,-8,16,24,8,16,24,102_110_86,86,110,16,-8,-24,16,8,24,102_86_110,16_-8_-24,8_16_24,1,1,1,8,query_middle,convex,110.0,ref_highdim,0,1.0,2,ref_highdim,ref_left,1.0,dense_region,102_86_110,ref_towards_dense
sub_58,1,dense_right,img/object-9_120-levels_1D/object9F0Level69F1Level40.png,img/object-9_120-levels_1D/object9F0Level85F1Level40.png,img/object-9_120-levels_1D/object9F0Level45F1Level40.png,0,0,1412.4000000059605,q,pre_exposure,6,15848,1,True,q,70,86,46,-16,24,40,16,24,40,70_86_46,46,86,24,-16,-40,24,16,40,70_46_86,24_-16_-40,16_24_40,1,1,3,8,query_middle,across_convexity,86.0,ref_highdim,0,1.0,2,ref_highdim,ref_left,1.0,across_density_regions,70_46_86,ref_towards_dense
sub_58,1,dense_right,img/object-9_120-levels_1D/object9F0Level53F1Level40.png,img/object-9_120-levels_1D/object9F0Level29F1Level40.png,img/object-9_120-levels_1D/object9F0Level77F1Level40.png,0,0,1143.7000000029802,p,pre_exposure,7,18362,1,,,54,30,78,24,-24,-48,24,24,48,54_30_78,30,78,24,-24,-48,24,24,48,54_30_78,24_-24_-48,24_24_48,1,1,1,0,query_middle,concave,78.0,ref_highdim,0,1.0,2,nan,nan,,sparse_region,54_30_78,nan
sub_58,1,dense_right,img/object-9_120-levels_1D/object9F0Level85F1Level40.png,img/object-9_120-levels_1D/object9F0Level77F1Level40.png,img/object-9_120-levels_1D/object9F0Level109F1Level40.png,0,0,942.6000000089407,q,pre_exposure,8,20869,1,True,q,86,78,110,8,-24,-32,8,24,32,86_78_110,78,110,8,-24,-32,8,24,32,86_78_110,8_-24_-32,8_24_32,1,3,3,16,query_middle,convex,78.0,ref_lowdim,1,0.0,1,ref_lowdim,ref_left,1.0,dense_region,86_78_110,ref_towards_sparse
sub_58,1,dense_right,img/object-9_120-levels_1D/object9F0Level45F1Level40.png,img/object-9_120-levels_1D/object9F0Level69F1Level40.png,img/object-9_120-levels_1D/object9F0Level29F1Level40.png,0,0,658.6000000089407,p,pre_exposure,9,23377,1,True,p,46,70,30,-24,16,40,24,16,40,46_70_30,30,70,16,-24,-40,16,24,40,46_30_70,16_-24_-40,16_24_40,2,3,4,8,query_middle,concave,30.0,ref_lowdim,1,0.0,1,ref_lowdim,ref_right,1.0,sparse_region,46_30_70,ref_towards_sparse
sub_58,1,dense_right,img/object-9_120-levels_1D/object9F0Level37F1Level40.png,img/object-9_120-levels_1D/object9F0Level61F1Level40.png,img/object-9_120-levels_1D/object9F0Level29F1Level40.png,0,0,543.0999999940395,p,pre_exposure,10,25885,1,True,p,38,62,30,-24,8,32,24,8,32,38_62_30,30,62,8,-24,-32,8,24,32,38_30_62,8_-24_-32,8_24_32,2,4,4,16,query_middle,concave,30.0,ref_lowdim,1,0.0,1,ref_lowdim,ref_right,1.0,sparse_region,38_30_62,ref_towards_sparse
sub_58,1,dense_right,img/object-9_120-levels_1D/object9F0Level69F1Level40.png,img/object-9_120-levels_1D/object9F0Level61F1Level40.png,img/object-9_120-levels_1D/object9F0Level77F1Level40.png,0,0,1354.9000000059605,p,pre_exposure,11,28391,1,,,70,62,78,8,-8,-16,8,8,16,70_62_78,62,78,8,-8,-16,8,8,16,70_62_78,8_-8_-16,8_8_16,1,1,1,0,query_middle,across_convexity,78.0,ref_highdim,0,1.0,2,nan,nan,,across_density_regions,70_62_78,nan
sub_58,1,dense_right,img/object-9_120-levels_1D/object9F0Level101F1Level40.png,img/object-9_120-levels_1D/object9F0Level93F1Level40.png,img/object-9_120-levels_1D/object9F0Level109F1Level40.png,0,0,1329.0,q,pre_exposure,12,30902,1,,,102,94,110,8,-8,-16,8,8,16,102_94_110,94,110,8,-8,-16,8,8,16,102_94_110,8_-8_-16,8_8_16,1,2,2,0,query_middle,convex,94.0,ref_lowdim,1,0.0,1,nan,nan,,dense_region,102_94_110,nan
sub_58,1,dense_right,img/object-9_120-levels_1D/object9F0Level85F1Level40.png,img/object-9_120-levels_1D/object9F0Level61F1Level40.png,img/object-9_120-levels_1D/object9F0Level109F1Level40.png,0,0,972.9000000059605,p,pre_exposure,13,33415,1,,,86,62,110,24,-24,-48,24,24,48,86_62_110,62,110,24,-24,-48,24,24,48,86_62_110,24_-24_-48,24_24_48,1,2,2,0,query_middle,convex,110.0,ref_highdim,0,1.0,2,nan,nan,,dense_region,86_62_110,nan
sub_58,1,dense_right,img/object-9_120-levels_1D/object9F0Level93F1Level40.png,img/object-9_120-levels_1D/object9F0Level109F1Level40.png,img/object-9_120-levels_1D/object9F0Level77F1Level40.png,0,0,768.7999999970198,q,pre_exposure,14,35922,1,,,94,110,78,-16,16,32,16,16,32,94_110_78,78,110,16,-16,-32,16,16,32,94_78_110,16_-16_-32,16_16_32,1,1,1,0,query_middle,convex,110.0,ref_highdim,0,1.0,2,nan,nan,,dense_region,94_78_110,nan
sub_58,1,dense_right,img/object-9_120-levels_1D/object9F0Level53F1Level40.png,img/object-9_120-levels_1D/object9F0Level61F1Level40.png,img/object-9_120-levels_1D/object9F0Level29F1Level40.png,0,0,1164.2999999970198,q,pre_exposure,15,38430,1,True,q,54,62,30,-8,24,32,8,24,32,54_62_30,30,62,24,-8,-32,24,8,32,54_30_62,24_-8_-32,8_24_32,1,1,5,16,query_middle,concave,62.0,ref_highdim,0,1.0,2,ref_highdim,ref_left,1.0,sparse_region,54_30_62,ref_towards_dense
sub_58,1,dense_right,img/object-9_120-levels_1D/object9F0Level69F1Level40.png,img/object-9_120-levels_1D/object9F0Level45F1Level40.png,img/object-9_120-levels_1D/object9F0Level77F1Level40.png,0,0,841.5,p,pre_exposure,16,40937,1,True,p,70,46,78,24,-8,-32,24,8,32,70_46_78,46,78,24,-8,-32,24,8,32,70_46_78,24_-8_-32,8_24_32,1,2,6,16,query_middle,across_convexity,78.0,ref_highdim,0,1.0,2,ref_highdim,ref_right,1.0,across_density_regions,70_46_78,ref_towards_dense
sub_58,1,dense_right,img/object-9_120-levels_1D/object9F0Level93F1Level40.png,img/object-9_120-levels_1D/object9F0Level109F1Level40.png,img/object-9_120-levels_1D/object9F0Level69F1Level40.png,0,0,926.7999999970198,q,pre_exposure,17,43445,1,True,q,94,110,70,-16,24,40,16,24,40,94_110_70,70,110,24,-16,-40,24,16,40,94_70_110,24_-16_-40,16_24_40,1,2,5,8,query_middle,convex,110.0,ref_highdim,0,1.0,2,ref_highdim,ref_left,1.0,dense_region,94_70_110,ref_towards_dense
sub_58,1,dense_right,img/object-9_120-levels_1D/object9F0Level45F1Level40.png,img/object-9_120-levels_1D/object9F0Level53F1Level40.png,img/object-9_120-levels_1D/object9F0Level29F1Level40.png,0,0,1130.5999999940395,q,pre_exposure,18,45953,1,True,q,46,54,30,-8,16,24,8,16,24,46_54_30,30,54,16,-8,-24,16,8,24,46_30_54,16_-8_-24,8_16_24,1,2,2,8,query_middle,concave,54.0,ref_highdim,0,1.0,2,ref_highdim,ref_left,1.0,sparse_region,46_30_54,ref_towards_dense
sub_58,1,dense_right,img/object-9_120-levels_1D/object9F0Level53F1Level40.png,img/object-9_120-levels_1D/object9F0Level77F1Level40.png,img/object-9_120-levels_1D/object9F0Level29F1Level40.png,0,0,997.9000000059605,q,pre_exposure,19,48461,1,,,54,78,30,-24,24,48,24,24,48,54_78_30,30,78,24,-24,-48,24,24,48,54_30_78,24_-24_-48,24_24_48,2,3,3,0,query_middle,concave,78.0,ref_highdim,0,1.0,2,nan,nan,,sparse_region,54_30_78,nan
sub_58,1,dense_right,img/object-9_120-levels_1D/object9F0Level69F1Level40.png,img/object-9_120-levels_1D/object9F0Level77F1Level40.png,img/object-9_120-levels_1D/object9F0Level61F1Level40.png,0,0,890.5999999940395,p,pre_exposure,20,50968,1,,,70,78,62,-8,8,16,8,8,16,70_78_62,62,78,8,-8,-16,8,8,16,70_62_78,8_-8_-16,8_8_16,2,3,3,0,query_middle,across_convexity,62.0,ref_lowdim,1,0.0,1,nan,nan,,across_density_regions,70_62_78,nan
sub_58,1,dense_right,img/object-9_120-levels_1D/object9F0Level37F1Level40.png,img/object-9_120-levels_1D/object9F0Level53F1Level40.png,img/object-9_120-levels_1D/object9F0Level29F1Level40.png,0,0,847.2000000029802,q,pre_exposure,21,53476,1,False,p,38,54,30,-16,8,24,16,8,24,38_54_30,30,54,8,-16,-24,8,16,24,38_30_54,8_-16_-24,8_16_24,1,1,3,8,query_middle,concave,54.0,ref_highdim,0,1.0,2,ref_lowdim,ref_right,0.0,sparse_region,38_30_54,ref_towards_sparse
sub_58,1,dense_right,img/object-9_120-levels_1D/object9F0Level53F1Level40.png,img/object-9_120-levels_1D/object9F0Level29F1Level40.png,img/object-9_120-levels_1D/object9F0Level69F1Level40.png,0,0,1166.7999999970198,q,pre_exposure,22,55990,1,False,p,54,30,70,24,-16,-40,24,16,40,54_30_70,30,70,24,-16,-40,24,16,40,54_30_70,24_-16_-40,16_24_40,1,3,6,8,query_middle,concave,30.0,ref_lowdim,1,0.0,1,ref_highdim,ref_right,0.0,sparse_region,54_30_70,ref_towards_dense
sub_58,1,dense_right,img/object-9_120-levels_1D/object9F0Level69F1Level40.png,img/object-9_120-levels_1D/object9F0Level45F1Level40.png,img/object-9_120-levels_1D/object9F0Level85F1Level40.png,0,0,1584.5999999940395,p,pre_exposure,23,58504,1,True,p,70,46,86,24,-16,-40,24,16,40,70_46_86,46,86,24,-16,-40,24,16,40,70_46_86,24_-16_-40,16_24_40,2,4,7,8,query_middle,across_convexity,86.0,ref_highdim,0,1.0,2,ref_highdim,ref_right,1.0,across_density_regions,70_46_86,ref_towards_dense
sub_58,1,dense_right,img/object-9_120-levels_1D/object9F0Level53F1Level40.png,img/object-9_120-levels_1D/object9F0Level69F1Level40.png,img/object-9_120-levels_1D/object9F0Level29F1Level40.png,0,0,702.6999999880791,q,pre_exposure,24,61011,1,True,q,54,70,30,-16,24,40,16,24,40,54_70_30,30,70,24,-16,-40,24,16,40,54_30_70,24_-16_-40,16_24_40,2,5,8,8,query_middle,concave,70.0,ref_highdim,0,1.0,2,ref_highdim,ref_left,1.0,sparse_region,54_30_70,ref_towards_dense
sub_58,1,dense_right,img/object-9_120-levels_1D/object9F0Level93F1Level40.png,img/object-9_120-levels_1D/object9F0Level85F1Level40.png,img/object-9_120-levels_1D/object9F0Level109F1Level40.png,0,0,1099.6000000089407,q,pre_exposure,25,63519,1,True,q,94,86,110,8,-16,-24,8,16,24,94_86_110,86,110,8,-16,-24,8,16,24,94_86_110,8_-16_-24,8_16_24,1,2,4,8,query_middle,convex,86.0,ref_lowdim,1,0.0,1,ref_lowdim,ref_left,1.0,dense_region,94_86_110,ref_towards_sparse
sub_58,1,dense_right,img/object-9_120-levels_1D/object9F0Level69F1Level40.png,img/object-9_120-levels_1D/object9F0Level61F1Level40.png,img/object-9_120-levels_1D/object9F0Level93F1Level40.png,0,0,936.2000000029802,q,pre_exposure,26,66023,1,True,q,70,62,94,8,-24,-32,8,24,32,70_62_94,62,94,8,-24,-32,8,24,32,70_62_94,8_-24_-32,8_24_32,2,5,7,16,query_middle,across_convexity,62.0,ref_lowdim,1,0.0,1,ref_lowdim,ref_left,1.0,across_density_regions,70_62_94,ref_towards_sparse
sub_58,1,dense_right,img/object-9_120-levels_1D/object9F0Level85F1Level40.png,img/object-9_120-levels_1D/object9F0Level109F1Level40.png,img/object-9_120-levels_1D/object9F0Level61F1Level40.png,0,0,1560.2000000029802,p,pre_exposure,27,68534,1,,,86,110,62,-24,24,48,24,24,48,86_110_62,62,110,24,-24,-48,24,24,48,86_62_110,24_-24_-48,24_24_48,2,4,4,0,query_middle,convex,62.0,ref_lowdim,1,0.0,1,nan,nan,,dense_region,86_62_110,nan
sub_58,1,dense_right,img/object-9_120-levels_1D/object9F0Level69F1Level40.png,img/object-9_120-levels_1D/object9F0Level85F1Level40.png,img/object-9_120-levels_1D/object9F0Level53F1Level40.png,0,0,1620.2000000029802,p,pre_exposure,1,3331,2,,,70,86,54,-16,16,32,16,16,32,70_86_54,54,86,16,-16,-32,16,16,32,70_54_86,16_-16_-32,16_16_32,1,2,2,0,query_middle,across_convexity,54.0,ref_lowdim,1,0.0,1,nan,nan,,across_density_regions,70_54_86,nan
sub_58,1,dense_right,img/object-9_120-levels_1D/object9F0Level37F1Level40.png,img/object-9_120-levels_1D/object9F0Level29F1Level40.png,img/object-9_120-levels_1D/object9F0Level45F1Level40.png,0,0,996.2999999970198,q,pre_exposure,2,5839,2,,,38,30,46,8,-8,-16,8,8,16,38_30_46,30,46,8,-8,-16,8,8,16,38_30_46,8_-8_-16,8_8_16,1,4,4,0,query_middle,concave,30.0,ref_lowdim,1,0.0,1,nan,nan,,sparse_region,38_30_46,nan
sub_58,1,dense_right,img/object-9_120-levels_1D/object9F0Level69F1Level40.png,img/object-9_120-levels_1D/object9F0Level61F1Level40.png,img/object-9_120-levels_1D/object9F0Level85F1Level40.png,0,0,1522.1000000089407,q,pre_exposure,3,8347,2,True,q,70,62,86,8,-16,-24,8,16,24,70_62_86,62,86,8,-16,-24,8,16,24,70_62_86,8_-16_-24,8_16_24,1,3,5,8,query_middle,across_convexity,62.0,ref_lowdim,1,0.0,1,ref_lowdim,ref_left,1.0,across_density_regions,70_62_86,ref_towards_sparse
sub_58,1,dense_right,img/object-9_120-levels_1D/object9F0Level101F1Level40.png,img/object-9_120-levels_1D/object9F0Level77F1Level40.png,img/object-9_120-levels_1D/object9F0Level109F1Level40.png,0,0,1020.4000000059605,p,pre_exposure,4,10854,2,True,p,102,78,110,24,-8,-32,24,8,32,102_78_110,78,110,24,-8,-32,24,8,32,102_78_110,24_-8_-32,8_24_32,1,3,8,16,query_middle,convex,110.0,ref_highdim,0,1.0,2,ref_highdim,ref_right,1.0,dense_region,102_78_110,ref_towards_dense
sub_58,1,dense_right,img/object-9_120-levels_1D/object9F0Level69F1Level40.png,img/object-9_120-levels_1D/object9F0Level93F1Level40.png,img/object-9_120-levels_1D/object9F0Level45F1Level40.png,0,0,1680.5999999940395,q,pre_exposure,5,13362,2,,,70,94,46,-24,24,48,24,24,48,70_94_46,46,94,24,-24,-48,24,24,48,70_46_94,24_-24_-48,24_24_48,1,5,5,0,query_middle,across_convexity,94.0,ref_highdim,0,1.0,2,nan,nan,,across_density_regions,70_46_94,nan
sub_58,1,dense_right,img/object-9_120-levels_1D/object9F0Level101F1Level40.png,img/object-9_120-levels_1D/object9F0Level85F1Level40.png,img/object-9_120-levels_1D/object9F0Level109F1Level40.png,0,0,1124.0,p,pre_exposure,6,15871,2,True,p,102,86,110,16,-8,-24,16,8,24,102_86_110,86,110,16,-8,-24,16,8,24,102_86_110,16_-8_-24,8_16_24,2,3,6,8,query_middle,convex,110.0,ref_highdim,0,1.0,2,ref_highdim,ref_right,1.0,dense_region,102_86_110,ref_towards_dense
sub_58,1,dense_right,img/object-9_120-levels_1D/object9F0Level69F1Level40.png,img/object-9_120-levels_1D/object9F0Level77F1Level40.png,img/object-9_120-levels_1D/object9F0Level53F1Level40.png,0,0,848.9000000059605,q,pre_exposure,7,18377,2,True,q,70,78,54,-8,16,24,8,16,24,70_78_54,54,78,16,-8,-24,16,8,24,70_54_78,16_-8_-24,8_16_24,1,4,7,8,query_middle,across_convexity,78.0,ref_highdim,0,1.0,2,ref_highdim,ref_left,1.0,across_density_regions,70_54_78,ref_towards_dense
sub_58,1,dense_right,img/object-9_120-levels_1D/object9F0Level45F1Level40.png,img/object-9_120-levels_1D/object9F0Level29F1Level40.png,img/object-9_120-levels_1D/object9F0Level53F1Level40.png,0,0,1053.2999999970198,q,pre_exposure,8,20884,2,False,p,46,30,54,16,-8,-24,16,8,24,46_30_54,30,54,16,-8,-24,16,8,24,46_30_54,16_-8_-24,8_16_24,2,5,8,8,query_middle,concave,30.0,ref_lowdim,1,0.0,1,ref_highdim,ref_right,0.0,sparse_region,46_30_54,ref_towards_dense
sub_58,1,dense_right,img/object-9_120-levels_1D/object9F0Level53F1Level40.png,img/object-9_120-levels_1D/object9F0Level29F1Level40.png,img/object-9_120-levels_1D/object9F0Level61F1Level40.png,0,0,907.0,p,pre_exposure,9,23393,2,True,p,54,30,62,24,-8,-32,24,8,32,54_30_62,30,62,24,-8,-32,24,8,32,54_30_62,24_-8_-32,8_24_32,2,4,9,16,query_middle,concave,62.0,ref_highdim,0,1.0,2,ref_highdim,ref_right,1.0,sparse_region,54_30_62,ref_towards_dense
sub_58,1,dense_right,img/object-9_120-levels_1D/object9F0Level45F1Level40.png,img/object-9_120-levels_1D/object9F0Level29F1Level40.png,img/object-9_120-levels_1D/object9F0Level61F1Level40.png,0,0,774.2999999970198,q,pre_exposure,10,25906,2,,,46,30,62,16,-16,-32,16,16,32,46_30_62,30,62,16,-16,-32,16,16,32,46_30_62,16_-16_-32,16_16_32,1,3,3,0,query_middle,concave,30.0,ref_lowdim,1,0.0,1,nan,nan,,sparse_region,46_30_62,nan
sub_58,1,dense_right,img/object-9_120-levels_1D/object9F0Level69F1Level40.png,img/object-9_120-levels_1D/object9F0Level45F1Level40.png,img/object-9_120-levels_1D/object9F0Level93F1Level40.png,0,0,852.8000000119209,p,pre_exposure,11,28414,2,,,70,46,94,24,-24,-48,24,24,48,70_46_94,46,94,24,-24,-48,24,24,48,70_46_94,24_-24_-48,24_24_48,2,6,6,0,query_middle,across_convexity,94.0,ref_highdim,0,1.0,2,nan,nan,,across_density_regions,70_46_94,nan
sub_58,1,dense_right,img/object-9_120-levels_1D/object9F0Level93F1Level40.png,img/object-9_120-levels_1D/object9F0Level77F1Level40.png,img/object-9_120-levels_1D/object9F0Level109F1Level40.png,0,0,1353.2999999970198,p,pre_exposure,12,30923,2,,,94,78,110,16,-16,-32,16,16,32,94_78_110,78,110,16,-16,-32,16,16,32,94_78_110,16_-16_-32,16_16_32,2,4,4,0,query_middle,convex,110.0,ref_highdim,0,1.0,2,nan,nan,,dense_region,94_78_110,nan
sub_58,1,dense_right,img/object-9_120-levels_1D/object9F0Level69F1Level40.png,img/object-9_120-levels_1D/object9F0Level77F1Level40.png,img/object-9_120-levels_1D/object9F0Level45F1Level40.png,0,0,923.7999999970198,q,pre_exposure,13,33430,2,True,q,70,78,46,-8,24,32,8,24,32,70_78_46,46,78,24,-8,-32,24,8,32,70_46_78,24_-8_-32,8_24_32,2,5,10,16,query_middle,across_convexity,78.0,ref_highdim,0,1.0,2,ref_highdim,ref_left,1.0,across_density_regions,70_46_78,ref_towards_dense
sub_58,1,dense_right,img/object-9_120-levels_1D/object9F0Level93F1Level40.png,img/object-9_120-levels_1D/object9F0Level69F1Level40.png,img/object-9_120-levels_1D/object9F0Level109F1Level40.png,0,0,763.0999999940395,p,pre_exposure,14,35944,2,True,p,94,70,110,24,-16,-40,24,16,40,94_70_110,70,110,24,-16,-40,24,16,40,94_70_110,24_-16_-40,16_24_40,2,6,9,8,query_middle,convex,110.0,ref_highdim,0,1.0,2,ref_highdim,ref_right,1.0,dense_region,94_70_110,ref_towards_dense
sub_58,1,dense_right,img/object-9_120-levels_1D/object9F0Level37F1Level40.png,img/object-9_120-levels_1D/object9F0Level29F1Level40.png,img/object-9_120-levels_1D/object9F0Level53F1Level40.png,0,0,870.0,q,pre_exposure,15,38452,2,True,q,38,30,54,8,-16,-24,8,16,24,38_30_54,30,54,8,-16,-24,8,16,24,38_30_54,8_-16_-24,8_16_24,2,4,9,8,query_middle,concave,30.0,ref_lowdim,1,0.0,1,ref_lowdim,ref_left,1.0,sparse_region,38_30_54,ref_towards_sparse
sub_58,1,dense_right,img/object-9_120-levels_1D/object9F0Level101F1Level40.png,img/object-9_120-levels_1D/object9F0Level109F1Level40.png,img/object-9_120-levels_1D/object9F0Level93F1Level40.png,0,0,1483.0,q,pre_exposure,16,40959,2,,,102,110,94,-8,8,16,8,8,16,102_110_94,94,110,8,-8,-16,8,8,16,102_94_110,8_-8_-16,8_8_16,2,5,5,0,query_middle,convex,110.0,ref_highdim,0,1.0,2,nan,nan,,dense_region,102_94_110,nan
sub_58,1,dense_right,img/object-9_120-levels_1D/object9F0Level69F1Level40.png,img/object-9_120-levels_1D/object9F0Level53F1Level40.png,img/object-9_120-levels_1D/object9F0Level77F1Level40.png,0,0,1023.1000000089407,p,pre_exposure,17,43467,2,True,p,70,54,78,16,-8,-24,16,8,24,70_54_78,54,78,16,-8,-24,16,8,24,70_54_78,16_-8_-24,8_16_24,2,6,10,8,query_middle,across_convexity,78.0,ref_highdim,0,1.0,2,ref_highdim,ref_right,1.0,across_density_regions,70_54_78,ref_towards_dense
sub_58,1,dense_right,img/object-9_120-levels_1D/object9F0Level85F1Level40.png,img/object-9_120-levels_1D/object9F0Level69F1Level40.png,img/object-9_120-levels_1D/object9F0Level109F1Level40.png,0,0,1851.0,p,pre_exposure,18,45980,2,False,q,86,70,110,16,-24,-40,16,24,40,86_70_110,70,110,16,-24,-40,16,24,40,86_70_110,16_-24_-40,16_24_40,1,4,10,8,query_middle,convex,110.0,ref_highdim,0,1.0,2,ref_lowdim,ref_left,0.0,dense_region,86_70_110,ref_towards_sparse
sub_58,1,dense_right,img/object-9_120-levels_1D/object9F0Level69F1Level40.png,img/object-9_120-levels_1D/object9F0Level85F1Level40.png,img/object-9_120-levels_1D/object9F0Level61F1Level40.png,0,0,1208.8999999910593,q,pre_exposure,19,48488,2,False,p,70,86,62,-16,8,24,16,8,24,70_86_62,62,86,8,-16,-24,8,16,24,70_62_86,8_-16_-24,8_16_24,2,5,11,8,query_middle,across_convexity,86.0,ref_highdim,0,1.0,2,ref_lowdim,ref_right,0.0,across_density_regions,70_62_86,ref_towards_sparse
sub_58,1,dense_right,img/object-9_120-levels_1D/object9F0Level45F1Level40.png,img/object-9_120-levels_1D/object9F0Level61F1Level40.png,img/object-9_120-levels_1D/object9F0Level29F1Level40.png,0,0,1469.9000000059605,q,pre_exposure,20,50996,2,,,46,62,30,-16,16,32,16,16,32,46_62_30,30,62,16,-16,-32,16,16,32,46_30_62,16_-16_-32,16_16_32,2,5,5,0,query_middle,concave,62.0,ref_highdim,0,1.0,2,nan,nan,,sparse_region,46_30_62,nan
sub_58,1,dense_right,img/object-9_120-levels_1D/object9F0Level85F1Level40.png,img/object-9_120-levels_1D/object9F0Level109F1Level40.png,img/object-9_120-levels_1D/object9F0Level69F1Level40.png,0,0,1794.0999999940395,p,pre_exposure,21,53503,2,True,p,86,110,70,-24,16,40,24,16,40,86_110_70,70,110,16,-24,-40,16,24,40,86_70_110,16_-24_-40,16_24_40,2,5,11,8,query_middle,convex,70.0,ref_lowdim,1,0.0,1,ref_lowdim,ref_right,1.0,dense_region,86_70_110,ref_towards_sparse
sub_58,1,dense_right,img/object-9_120-levels_1D/object9F0Level69F1Level40.png,img/object-9_120-levels_1D/object9F0Level53F1Level40.png,img/object-9_120-levels_1D/object9F0Level85F1Level40.png,0,0,1157.5,p,pre_exposure,22,56007,2,,,70,54,86,16,-16,-32,16,16,32,70_54_86,54,86,16,-16,-32,16,16,32,70_54_86,16_-16_-32,16_16_32,2,6,6,0,query_middle,across_convexity,86.0,ref_highdim,0,1.0,2,nan,nan,,across_density_regions,70_54_86,nan
sub_58,1,dense_right,img/object-9_120-levels_1D/object9F0Level93F1Level40.png,img/object-9_120-levels_1D/object9F0Level109F1Level40.png,img/object-9_120-levels_1D/object9F0Level85F1Level40.png,0,0,1258.5,q,pre_exposure,23,58519,2,False,p,94,110,86,-16,8,24,16,8,24,94_110_86,86,110,8,-16,-24,8,16,24,94_86_110,8_-16_-24,8_16_24,2,6,12,8,query_middle,convex,110.0,ref_highdim,0,1.0,2,ref_lowdim,ref_right,0.0,dense_region,94_86_110,ref_towards_sparse
sub_58,1,dense_right,img/object-9_120-levels_1D/object9F0Level85F1Level40.png,img/object-9_120-levels_1D/object9F0Level109F1Level40.png,img/object-9_120-levels_1D/object9F0Level77F1Level40.png,0,0,1111.0,p,pre_exposure,24,61026,2,True,p,86,110,78,-24,8,32,24,8,32,86_110_78,78,110,8,-24,-32,8,24,32,86_78_110,8_-24_-32,8_24_32,2,6,11,16,query_middle,convex,78.0,ref_lowdim,1,0.0,1,ref_lowdim,ref_right,1.0,dense_region,86_78_110,ref_towards_sparse
sub_58,1,dense_right,img/object-9_120-levels_1D/object9F0Level69F1Level40.png,img/object-9_120-levels_1D/object9F0Level93F1Level40.png,img/object-9_120-levels_1D/object9F0Level53F1Level40.png,0,0,763.2999999970198,q,pre_exposure,25,63534,2,False,p,70,94,54,-24,16,40,24,16,40,70_94_54,54,94,16,-24,-40,16,24,40,70_54_94,16_-24_-40,16_24_40,2,6,12,8,query_middle,across_convexity,94.0,ref_highdim,0,1.0,2,ref_lowdim,ref_right,0.0,across_density_regions,70_54_94,ref_towards_sparse
sub_58,1,dense_right,img/object-9_120-levels_1D/object9F0Level101F1Level40.png,img/object-9_120-levels_1D/object9F0Level109F1Level40.png,img/object-9_120-levels_1D/object9F0Level77F1Level40.png,0,0,815.5,q,pre_exposure,26,66041,2,True,q,102,110,78,-8,24,32,8,24,32,102_110_78,78,110,24,-8,-32,24,8,32,102_78_110,24_-8_-32,8_24_32,2,6,12,16,query_middle,convex,110.0,ref_highdim,0,1.0,2,ref_highdim,ref_left,1.0,dense_region,102_78_110,ref_towards_dense
sub_58,1,dense_right,img/object-9_120-levels_1D/object9F0Level37F1Level40.png,img/object-9_120-levels_1D/object9F0Level45F1Level40.png,img/object-9_120-levels_1D/object9F0Level29F1Level40.png,0,0,1580.9000000059605,p,pre_exposure,27,68546,2,,,38,46,30,-8,8,16,8,8,16,38_46_30,30,46,8,-8,-16,8,8,16,38_30_46,8_-8_-16,8_8_16,2,6,6,0,query_middle,concave,30.0,ref_lowdim,1,0.0,1,nan,nan,,sparse_region,38_30_46,nan
sub_58,1,dense_right,img/object-9_120-levels_1D/object9F0Level101F1Level40.png,img/object-9_120-levels_1D/object9F0Level85F1Level40.png,img/object-9_120-levels_1D/object9F0Level109F1Level40.png,0,0,3668.2999999970198,p,post_exposure,1,5054,1,True,p,102,86,110,16,-8,-24,16,8,24,102_86_110,86,110,16,-8,-24,16,8,24,102_86_110,16_-8_-24,8_16_24,1,1,1,8,query_middle,convex,110.0,ref_highdim,0,1.0,2,ref_highdim,ref_right,1.0,dense_region,102_86_110,ref_towards_dense
sub_58,1,dense_right,img/object-9_120-levels_1D/object9F0Level69F1Level40.png,img/object-9_120-levels_1D/object9F0Level45F1Level40.png,img/object-9_120-levels_1D/object9F0Level85F1Level40.png,0,0,1756.7000000029802,p,post_exposure,2,7562,1,True,p,70,46,86,24,-16,-40,24,16,40,70_46_86,46,86,24,-16,-40,24,16,40,70_46_86,24_-16_-40,16_24_40,1,1,1,8,query_middle,across_convexity,86.0,ref_highdim,0,1.0,2,ref_highdim,ref_right,1.0,across_density_regions,70_46_86,ref_towards_dense
sub_58,1,dense_right,img/object-9_120-levels_1D/object9F0Level93F1Level40.png,img/object-9_120-levels_1D/object9F0Level77F1Level40.png,img/object-9_120-levels_1D/object9F0Level109F1Level40.png,0,0,1617.4000000059605,p,post_exposure,3,10070,1,,,94,78,110,16,-16,-32,16,16,32,94_78_110,78,110,16,-16,-32,16,16,32,94_78_110,16_-16_-32,16_16_32,1,1,1,0,query_middle,convex,110.0,ref_highdim,0,1.0,2,nan,nan,,dense_region,94_78_110,nan
sub_58,1,dense_right,img/object-9_120-levels_1D/object9F0Level45F1Level40.png,img/object-9_120-levels_1D/object9F0Level61F1Level40.png,img/object-9_120-levels_1D/object9F0Level29F1Level40.png,0,0,1910.0999999940395,p,post_exposure,4,12573,1,,,46,62,30,-16,16,32,16,16,32,46_62_30,30,62,16,-16,-32,16,16,32,46_30_62,16_-16_-32,16_16_32,1,2,2,0,query_middle,concave,30.0,ref_lowdim,1,0.0,1,nan,nan,,sparse_region,46_30_62,nan
sub_58,1,dense_right,img/object-9_120-levels_1D/object9F0Level53F1Level40.png,img/object-9_120-levels_1D/object9F0Level29F1Level40.png,img/object-9_120-levels_1D/object9F0Level69F1Level40.png,0,0,886.5999999940395,p,post_exposure,5,15079,1,True,p,54,30,70,24,-16,-40,24,16,40,54_30_70,30,70,24,-16,-40,24,16,40,54_30_70,24_-16_-40,16_24_40,1,2,2,8,query_middle,concave,70.0,ref_highdim,0,1.0,2,ref_highdim,ref_right,1.0,sparse_region,54_30_70,ref_towards_dense
sub_58,1,dense_right,img/object-9_120-levels_1D/object9F0Level69F1Level40.png,img/object-9_120-levels_1D/object9F0Level85F1Level40.png,img/object-9_120-levels_1D/object9F0Level61F1Level40.png,0,0,1851.2000000029802,p,post_exposure,6,17587,1,True,p,70,86,62,-16,8,24,16,8,24,70_86_62,62,86,8,-16,-24,8,16,24,70_62_86,8_-16_-24,8_16_24,1,1,2,8,query_middle,across_convexity,62.0,ref_lowdim,1,0.0,1,ref_lowdim,ref_right,1.0,across_density_regions,70_62_86,ref_towards_sparse
sub_58,1,dense_right,img/object-9_120-levels_1D/object9F0Level93F1Level40.png,img/object-9_120-levels_1D/object9F0Level109F1Level40.png,img/object-9_120-levels_1D/object9F0Level85F1Level40.png,0,0,2168.5999999940395,q,post_exposure,7,20263,1,False,p,94,110,86,-16,8,24,16,8,24,94_110_86,86,110,8,-16,-24,8,16,24,94_86_110,8_-16_-24,8_16_24,1,2,3,8,query_middle,convex,110.0,ref_highdim,0,1.0,2,ref_lowdim,ref_right,0.0,dense_region,94_86_110,ref_towards_sparse
sub_58,1,dense_right,img/object-9_120-levels_1D/object9F0Level37F1Level40.png,img/object-9_120-levels_1D/object9F0Level29F1Level40.png,img/object-9_120-levels_1D/object9F0Level45F1Level40.png,0,0,1587.8999999910593,p,post_exposure,8,22771,1,,,38,30,46,8,-8,-16,8,8,16,38_30_46,30,46,8,-8,-16,8,8,16,38_30_46,8_-8_-16,8_8_16,1,1,1,0,query_middle,concave,46.0,ref_highdim,0,1.0,2,nan,nan,,sparse_region,38_30_46,nan
sub_58,1,dense_right,img/object-9_120-levels_1D/object9F0Level69F1Level40.png,img/object-9_120-levels_1D/object9F0Level53F1Level40.png,img/object-9_120-levels_1D/object9F0Level85F1Level40.png,0,0,872.5,q,post_exposure,9,25284,1,,,70,54,86,16,-16,-32,16,16,32,70_54_86,54,86,16,-16,-32,16,16,32,70_54_86,16_-16_-32,16_16_32,1,3,3,0,query_middle,across_convexity,54.0,ref_lowdim,1,0.0,1,nan,nan,,across_density_regions,70_54_86,nan
sub_58,1,dense_right,img/object-9_120-levels_1D/object9F0Level93F1Level40.png,img/object-9_120-levels_1D/object9F0Level109F1Level40.png,img/object-9_120-levels_1D/object9F0Level77F1Level40.png,0,0,1159.0999999940395,q,post_exposure,10,27791,1,,,94,110,78,-16,16,32,16,16,32,94_110_78,78,110,16,-16,-32,16,16,32,94_78_110,16_-16_-32,16_16_32,2,4,4,0,query_middle,convex,110.0,ref_highdim,0,1.0,2,nan,nan,,dense_region,94_78_110,nan
sub_58,1,dense_right,img/object-9_120-levels_1D/object9F0Level53F1Level40.png,img/object-9_120-levels_1D/object9F0Level29F1Level40.png,img/object-9_120-levels_1D/object9F0Level77F1Level40.png,0,0,1164.6000000089407,p,post_exposure,11,30301,1,,,54,30,78,24,-24,-48,24,24,48,54_30_78,30,78,24,-24,-48,24,24,48,54_30_78,24_-24_-48,24_24_48,1,1,1,0,query_middle,concave,78.0,ref_highdim,0,1.0,2,nan,nan,,sparse_region,54_30_78,nan
sub_58,1,dense_right,img/object-9_120-levels_1D/object9F0Level69F1Level40.png,img/object-9_120-levels_1D/object9F0Level93F1Level40.png,img/object-9_120-levels_1D/object9F0Level53F1Level40.png,0,0,1333.8999999910593,p,post_exposure,12,32808,1,True,p,70,94,54,-24,16,40,24,16,40,70_94_54,54,94,16,-24,-40,16,24,40,70_54_94,16_-24_-40,16_24_40,1,1,3,8,query_middle,across_convexity,54.0,ref_lowdim,1,0.0,1,ref_lowdim,ref_right,1.0,across_density_regions,70_54_94,ref_towards_sparse
sub_58,1,dense_right,img/object-9_120-levels_1D/object9F0Level45F1Level40.png,img/object-9_120-levels_1D/object9F0Level53F1Level40.png,img/object-9_120-levels_1D/object9F0Level29F1Level40.png,0,0,753.7000000029802,q,post_exposure,13,35316,1,True,q,46,54,30,-8,16,24,8,16,24,46_54_30,30,54,16,-8,-24,16,8,24,46_30_54,16_-8_-24,8_16_24,1,2,4,8,query_middle,concave,54.0,ref_highdim,0,1.0,2,ref_highdim,ref_left,1.0,sparse_region,46_30_54,ref_towards_dense
sub_58,1,dense_right,img/object-9_120-levels_1D/object9F0Level69F1Level40.png,img/object-9_120-levels_1D/object9F0Level53F1Level40.png,img/object-9_120-levels_1D/object9F0Level77F1Level40.png,0,0,694.4000000059605,p,post_exposure,14,37824,1,True,p,70,54,78,16,-8,-24,16,8,24,70_54_78,54,78,16,-8,-24,16,8,24,70_54_78,16_-8_-24,8_16_24,1,3,5,8,query_middle,across_convexity,78.0,ref_highdim,0,1.0,2,ref_highdim,ref_right,1.0,across_density_regions,70_54_78,ref_towards_dense
sub_58,1,dense_right,img/object-9_120-levels_1D/object9F0Level85F1Level40.png,img/object-9_120-levels_1D/object9F0Level77F1Level40.png,img/object-9_120-levels_1D/object9F0Level109F1Level40.png,0,0,970.2000000029802,q,post_exposure,15,40331,1,True,q,86,78,110,8,-24,-32,8,24,32,86_78_110,78,110,8,-24,-32,8,24,32,86_78_110,8_-24_-32,8_24_32,1,1,1,16,query_middle,convex,78.0,ref_lowdim,1,0.0,1,ref_lowdim,ref_left,1.0,dense_region,86_78_110,ref_towards_sparse
sub_58,1,dense_right,img/object-9_120-levels_1D/object9F0Level69F1Level40.png,img/object-9_120-levels_1D/object9F0Level77F1Level40.png,img/object-9_120-levels_1D/object9F0Level45F1Level40.png,0,0,1343.2999999970198,q,post_exposure,16,42839,1,True,q,70,78,46,-8,24,32,8,24,32,70_78_46,46,78,24,-8,-32,24,8,32,70_46_78,24_-8_-32,8_24_32,1,1,2,16,query_middle,across_convexity,78.0,ref_highdim,0,1.0,2,ref_highdim,ref_left,1.0,across_density_regions,70_46_78,ref_towards_dense
sub_58,1,dense_right,img/object-9_120-levels_1D/object9F0Level45F1Level40.png,img/object-9_120-levels_1D/object9F0Level29F1Level40.png,img/object-9_120-levels_1D/object9F0Level69F1Level40.png,0,0,1282.2999999970198,q,post_exposure,17,45353,1,True,q,46,30,70,16,-24,-40,16,24,40,46_30_70,30,70,16,-24,-40,16,24,40,46_30_70,16_-24_-40,16_24_40,1,2,4,8,query_middle,concave,30.0,ref_lowdim,1,0.0,1,ref_lowdim,ref_left,1.0,sparse_region,46_30_70,ref_towards_sparse
sub_58,1,dense_right,img/object-9_120-levels_1D/object9F0Level69F1Level40.png,img/object-9_120-levels_1D/object9F0Level77F1Level40.png,img/object-9_120-levels_1D/object9F0Level53F1Level40.png,0,0,769.4000000059605,q,post_exposure,18,47860,1,True,q,70,78,54,-8,16,24,8,16,24,70_78_54,54,78,16,-8,-24,16,8,24,70_54_78,16_-8_-24,8_16_24,2,4,6,8,query_middle,across_convexity,78.0,ref_highdim,0,1.0,2,ref_highdim,ref_left,1.0,across_density_regions,70_54_78,ref_towards_dense
sub_58,1,dense_right,img/object-9_120-levels_1D/object9F0Level45F1Level40.png,img/object-9_120-levels_1D/object9F0Level29F1Level40.png,img/object-9_120-levels_1D/object9F0Level61F1Level40.png,0,0,1070.0,q,post_exposure,19,50368,1,,,46,30,62,16,-16,-32,16,16,32,46_30_62,30,62,16,-16,-32,16,16,32,46_30_62,16_-16_-32,16_16_32,2,5,5,0,query_middle,concave,30.0,ref_lowdim,1,0.0,1,nan,nan,,sparse_region,46_30_62,nan
sub_58,1,dense_right,img/object-9_120-levels_1D/object9F0Level37F1Level40.png,img/object-9_120-levels_1D/object9F0Level61F1Level40.png,img/object-9_120-levels_1D/object9F0Level29F1Level40.png,0,0,1009.5,p,post_exposure,20,52875,1,True,p,38,62,30,-24,8,32,24,8,32,38_62_30,30,62,8,-24,-32,8,24,32,38_30_62,8_-24_-32,8_24_32,1,2,3,16,query_middle,concave,30.0,ref_lowdim,1,0.0,1,ref_lowdim,ref_right,1.0,sparse_region,38_30_62,ref_towards_sparse
sub_58,1,dense_right,img/object-9_120-levels_1D/object9F0Level93F1Level40.png,img/object-9_120-levels_1D/object9F0Level69F1Level40.png,img/object-9_120-levels_1D/object9F0Level109F1Level40.png,0,0,1013.6999999880791,p,post_exposure,21,55383,1,True,p,94,70,110,24,-16,-40,24,16,40,94_70_110,70,110,24,-16,-40,24,16,40,94_70_110,24_-16_-40,16_24_40,1,3,5,8,query_middle,convex,110.0,ref_highdim,0,1.0,2,ref_highdim,ref_right,1.0,dense_region,94_70_110,ref_towards_dense
sub_58,1,dense_right,img/object-9_120-levels_1D/object9F0Level69F1Level40.png,img/object-9_120-levels_1D/object9F0Level61F1Level40.png,img/object-9_120-levels_1D/object9F0Level77F1Level40.png,0,0,891.3000000119209,q,post_exposure,22,57891,1,,,70,62,78,8,-8,-16,8,8,16,70_62_78,62,78,8,-8,-16,8,8,16,70_62_78,8_-8_-16,8_8_16,1,2,2,0,query_middle,across_convexity,62.0,ref_lowdim,1,0.0,1,nan,nan,,across_density_regions,70_62_78,nan
sub_58,1,dense_right,img/object-9_120-levels_1D/object9F0Level93F1Level40.png,img/object-9_120-levels_1D/object9F0Level85F1Level40.png,img/object-9_120-levels_1D/object9F0Level109F1Level40.png,0,0,982.7000000029802,p,post_exposure,23,60399,1,False,q,94,86,110,8,-16,-24,8,16,24,94_86_110,86,110,8,-16,-24,8,16,24,94_86_110,8_-16_-24,8_16_24,2,3,7,8,query_middle,convex,110.0,ref_highdim,0,1.0,2,ref_lowdim,ref_left,0.0,dense_region,94_86_110,ref_towards_sparse
sub_58,1,dense_right,img/object-9_120-levels_1D/object9F0Level101F1Level40.png,img/object-9_120-levels_1D/object9F0Level109F1Level40.png,img/object-9_120-levels_1D/object9F0Level77F1Level40.png,0,0,658.8000000119209,q,post_exposure,24,62906,1,True,q,102,110,78,-8,24,32,8,24,32,102_110_78,78,110,24,-8,-32,24,8,32,102_78_110,24_-8_-32,8_24_32,1,2,4,16,query_middle,convex,110.0,ref_highdim,0,1.0,2,ref_highdim,ref_left,1.0,dense_region,102_78_110,ref_towards_dense
sub_58,1,dense_right,img/object-9_120-levels_1D/object9F0Level85F1Level40.png,img/object-9_120-levels_1D/object9F0Level61F1Level40.png,img/object-9_120-levels_1D/object9F0Level109F1Level40.png,0,0,1038.5999999940395,p,post_exposure,25,65414,1,,,86,62,110,24,-24,-48,24,24,48,86_62_110,62,110,24,-24,-48,24,24,48,86_62_110,24_-24_-48,24_24_48,1,2,2,0,query_middle,convex,110.0,ref_highdim,0,1.0,2,nan,nan,,dense_region,86_62_110,nan
sub_58,1,dense_right,img/object-9_120-levels_1D/object9F0Level69F1Level40.png,img/object-9_120-levels_1D/object9F0Level53F1Level40.png,img/object-9_120-levels_1D/object9F0Level93F1Level40.png,0,0,811.6000000089407,q,post_exposure,26,67922,1,True,q,70,54,94,16,-24,-40,16,24,40,70_54_94,54,94,16,-24,-40,16,24,40,70_54_94,16_-24_-40,16_24_40,2,3,6,8,query_middle,across_convexity,54.0,ref_lowdim,1,0.0,1,ref_lowdim,ref_left,1.0,across_density_regions,70_54_94,ref_towards_sparse
sub_58,1,dense_right,img/object-9_120-levels_1D/object9F0Level101F1Level40.png,img/object-9_120-levels_1D/object9F0Level109F1Level40.png,img/object-9_120-levels_1D/object9F0Level93F1Level40.png,0,0,624.5,p,post_exposure,27,70429,1,,,102,110,94,-8,8,16,8,8,16,102_110_94,94,110,8,-8,-16,8,8,16,102_94_110,8_-8_-16,8_8_16,1,3,3,0,query_middle,convex,94.0,ref_lowdim,1,0.0,1,nan,nan,,dense_region,102_94_110,nan
sub_58,1,dense_right,img/object-9_120-levels_1D/object9F0Level69F1Level40.png,img/object-9_120-levels_1D/object9F0Level85F1Level40.png,img/object-9_120-levels_1D/object9F0Level45F1Level40.png,0,0,2309.5,q,post_exposure,1,3742,2,True,q,70,86,46,-16,24,40,16,24,40,70_86_46,46,86,24,-16,-40,24,16,40,70_46_86,24_-16_-40,16_24_40,2,4,7,8,query_middle,across_convexity,86.0,ref_highdim,0,1.0,2,ref_highdim,ref_left,1.0,across_density_regions,70_46_86,ref_towards_dense
sub_58,1,dense_right,img/object-9_120-levels_1D/object9F0Level53F1Level40.png,img/object-9_120-levels_1D/object9F0Level69F1Level40.png,img/object-9_120-levels_1D/object9F0Level29F1Level40.png,0,0,815.5,q,post_exposure,2,6251,2,True,q,54,70,30,-16,24,40,16,24,40,54_70_30,30,70,24,-16,-40,24,16,40,54_30_70,24_-16_-40,16_24_40,2,5,8,8,query_middle,concave,70.0,ref_highdim,0,1.0,2,ref_highdim,ref_left,1.0,sparse_region,54_30_70,ref_towards_dense
sub_58,1,dense_right,img/object-9_120-levels_1D/object9F0Level69F1Level40.png,img/object-9_120-levels_1D/object9F0Level93F1Level40.png,img/object-9_120-levels_1D/object9F0Level61F1Level40.png,0,0,834.5,p,post_exposure,3,8763,2,True,p,70,94,62,-24,8,32,24,8,32,70_94_62,62,94,8,-24,-32,8,24,32,70_62_94,8_-24_-32,8_24_32,1,3,5,16,query_middle,across_convexity,62.0,ref_lowdim,1,0.0,1,ref_lowdim,ref_right,1.0,across_density_regions,70_62_94,ref_towards_sparse
sub_58,1,dense_right,img/object-9_120-levels_1D/object9F0Level101F1Level40.png,img/object-9_120-levels_1D/object9F0Level93F1Level40.png,img/object-9_120-levels_1D/object9F0Level109F1Level40.png,0,0,1467.4000000059605,p,post_exposure,4,11275,2,,,102,94,110,8,-8,-16,8,8,16,102_94_110,94,110,8,-8,-16,8,8,16,102_94_110,8_-8_-16,8_8_16,2,4,4,0,query_middle,convex,110.0,ref_highdim,0,1.0,2,nan,nan,,dense_region,102_94_110,nan
sub_58,1,dense_right,img/object-9_120-levels_1D/object9F0Level53F1Level40.png,img/object-9_120-levels_1D/object9F0Level61F1Level40.png,img/object-9_120-levels_1D/object9F0Level29F1Level40.png,0,0,696.5999999940395,q,post_exposure,5,13784,2,True,q,54,62,30,-8,24,32,8,24,32,54_62_30,30,62,24,-8,-32,24,8,32,54_30_62,24_-8_-32,8_24_32,1,3,6,16,query_middle,concave,62.0,ref_highdim,0,1.0,2,ref_highdim,ref_left,1.0,sparse_region,54_30_62,ref_towards_dense
sub_58,1,dense_right,img/object-9_120-levels_1D/object9F0Level69F1Level40.png,img/object-9_120-levels_1D/object9F0Level45F1Level40.png,img/object-9_120-levels_1D/object9F0Level77F1Level40.png,0,0,781.7000000029802,p,post_exposure,6,16291,2,True,p,70,46,78,24,-8,-32,24,8,32,70_46_78,46,78,24,-8,-32,24,8,32,70_46_78,24_-8_-32,8_24_32,2,4,7,16,query_middle,across_convexity,78.0,ref_highdim,0,1.0,2,ref_highdim,ref_right,1.0,across_density_regions,70_46_78,ref_towards_dense
sub_58,1,dense_right,img/object-9_120-levels_1D/object9F0Level53F1Level40.png,img/object-9_120-levels_1D/object9F0Level29F1Level40.png,img/object-9_120-levels_1D/object9F0Level61F1Level40.png,0,0,1458.1000000089407,q,post_exposure,7,18798,2,False,p,54,30,62,24,-8,-32,24,8,32,54_30_62,30,62,24,-8,-32,24,8,32,54_30_62,24_-8_-32,8_24_32,2,5,8,16,query_middle,concave,30.0,ref_lowdim,1,0.0,1,ref_highdim,ref_right,0.0,sparse_region,54_30_62,ref_towards_dense
sub_58,1,dense_right,img/object-9_120-levels_1D/object9F0Level85F1Level40.png,img/object-9_120-levels_1D/object9F0Level69F1Level40.png,img/object-9_120-levels_1D/object9F0Level109F1Level40.png,0,0,822.2000000029802,q,post_exposure,8,21307,2,True,q,86,70,110,16,-24,-40,16,24,40,86_70_110,70,110,16,-24,-40,16,24,40,86_70_110,16_-24_-40,16_24_40,1,4,9,8,query_middle,convex,70.0,ref_lowdim,1,0.0,1,ref_lowdim,ref_left,1.0,dense_region,86_70_110,ref_towards_sparse
sub_58,1,dense_right,img/object-9_120-levels_1D/object9F0Level69F1Level40.png,img/object-9_120-levels_1D/object9F0Level61F1Level40.png,img/object-9_120-levels_1D/object9F0Level85F1Level40.png,0,0,659.2999999970198,q,post_exposure,9,23815,2,True,q,70,62,86,8,-16,-24,8,16,24,70_62_86,62,86,8,-16,-24,8,16,24,70_62_86,8_-16_-24,8_16_24,2,4,8,8,query_middle,across_convexity,62.0,ref_lowdim,1,0.0,1,ref_lowdim,ref_left,1.0,across_density_regions,70_62_86,ref_towards_sparse
sub_58,1,dense_right,img/object-9_120-levels_1D/object9F0Level85F1Level40.png,img/object-9_120-levels_1D/object9F0Level109F1Level40.png,img/object-9_120-levels_1D/object9F0Level69F1Level40.png,0,0,662.6000000089407,p,post_exposure,10,26322,2,True,p,86,110,70,-24,16,40,24,16,40,86_110_70,70,110,16,-24,-40,16,24,40,86_70_110,16_-24_-40,16_24_40,2,5,10,8,query_middle,convex,70.0,ref_lowdim,1,0.0,1,ref_lowdim,ref_right,1.0,dense_region,86_70_110,ref_towards_sparse
sub_58,1,dense_right,img/object-9_120-levels_1D/object9F0Level37F1Level40.png,img/object-9_120-levels_1D/object9F0Level29F1Level40.png,img/object-9_120-levels_1D/object9F0Level53F1Level40.png,0,0,779.5,q,post_exposure,11,28826,2,True,q,38,30,54,8,-16,-24,8,16,24,38_30_54,30,54,8,-16,-24,8,16,24,38_30_54,8_-16_-24,8_16_24,1,5,9,8,query_middle,concave,30.0,ref_lowdim,1,0.0,1,ref_lowdim,ref_left,1.0,sparse_region,38_30_54,ref_towards_sparse
sub_58,1,dense_right,img/object-9_120-levels_1D/object9F0Level45F1Level40.png,img/object-9_120-levels_1D/object9F0Level69F1Level40.png,img/object-9_120-levels_1D/object9F0Level29F1Level40.png,0,0,721.8000000119209,p,post_exposure,12,31339,2,True,p,46,70,30,-24,16,40,24,16,40,46_70_30,30,70,16,-24,-40,16,24,40,46_30_70,16_-24_-40,16_24_40,2,6,11,8,query_middle,concave,30.0,ref_lowdim,1,0.0,1,ref_lowdim,ref_right,1.0,sparse_region,46_30_70,ref_towards_sparse
sub_58,1,dense_right,img/object-9_120-levels_1D/object9F0Level69F1Level40.png,img/object-9_120-levels_1D/object9F0Level77F1Level40.png,img/object-9_120-levels_1D/object9F0Level61F1Level40.png,0,0,698.9000000059605,p,post_exposure,13,33846,2,,,70,78,62,-8,8,16,8,8,16,70_78_62,62,78,8,-8,-16,8,8,16,70_62_78,8_-8_-16,8_8_16,2,5,5,0,query_middle,across_convexity,62.0,ref_lowdim,1,0.0,1,nan,nan,,across_density_regions,70_62_78,nan
sub_58,1,dense_right,img/object-9_120-levels_1D/object9F0Level37F1Level40.png,img/object-9_120-levels_1D/object9F0Level53F1Level40.png,img/object-9_120-levels_1D/object9F0Level29F1Level40.png,0,0,878.2000000029802,p,post_exposure,14,36354,2,True,p,38,54,30,-16,8,24,16,8,24,38_54_30,30,54,8,-16,-24,8,16,24,38_30_54,8_-16_-24,8_16_24,2,6,10,8,query_middle,concave,30.0,ref_lowdim,1,0.0,1,ref_lowdim,ref_right,1.0,sparse_region,38_30_54,ref_towards_sparse
sub_58,1,dense_right,img/object-9_120-levels_1D/object9F0Level69F1Level40.png,img/object-9_120-levels_1D/object9F0Level61F1Level40.png,img/object-9_120-levels_1D/object9F0Level93F1Level40.png,0,0,762.9000000059605,q,post_exposure,15,38862,2,True,q,70,62,94,8,-24,-32,8,24,32,70_62_94,62,94,8,-24,-32,8,24,32,70_62_94,8_-24_-32,8_24_32,2,4,9,16,query_middle,across_convexity,62.0,ref_lowdim,1,0.0,1,ref_lowdim,ref_left,1.0,across_density_regions,70_62_94,ref_towards_sparse
sub_58,1,dense_right,img/object-9_120-levels_1D/object9F0Level85F1Level40.png,img/object-9_120-levels_1D/object9F0Level109F1Level40.png,img/object-9_120-levels_1D/object9F0Level77F1Level40.png,0,0,965.7000000029802,p,post_exposure,16,41369,2,True,p,86,110,78,-24,8,32,24,8,32,86_110_78,78,110,8,-24,-32,8,24,32,86_78_110,8_-24_-32,8_24_32,2,5,10,16,query_middle,convex,78.0,ref_lowdim,1,0.0,1,ref_lowdim,ref_right,1.0,dense_region,86_78_110,ref_towards_sparse
sub_58,1,dense_right,img/object-9_120-levels_1D/object9F0Level37F1Level40.png,img/object-9_120-levels_1D/object9F0Level29F1Level40.png,img/object-9_120-levels_1D/object9F0Level61F1Level40.png,0,0,635.3999999910593,q,post_exposure,17,43877,2,True,q,38,30,62,8,-24,-32,8,24,32,38_30_62,30,62,8,-24,-32,8,24,32,38_30_62,8_-24_-32,8_24_32,2,6,11,16,query_middle,concave,30.0,ref_lowdim,1,0.0,1,ref_lowdim,ref_left,1.0,sparse_region,38_30_62,ref_towards_sparse
sub_58,1,dense_right,img/object-9_120-levels_1D/object9F0Level53F1Level40.png,img/object-9_120-levels_1D/object9F0Level77F1Level40.png,img/object-9_120-levels_1D/object9F0Level29F1Level40.png,0,0,1000.2999999970198,q,post_exposure,18,46385,2,,,54,78,30,-24,24,48,24,24,48,54_78_30,30,78,24,-24,-48,24,24,48,54_30_78,24_-24_-48,24_24_48,2,3,3,0,query_middle,concave,78.0,ref_highdim,0,1.0,2,nan,nan,,sparse_region,54_30_78,nan
sub_58,1,dense_right,img/object-9_120-levels_1D/object9F0Level69F1Level40.png,img/object-9_120-levels_1D/object9F0Level93F1Level40.png,img/object-9_120-levels_1D/object9F0Level45F1Level40.png,0,0,867.5,p,post_exposure,19,48892,2,,,70,94,46,-24,24,48,24,24,48,70_94_46,46,94,24,-24,-48,24,24,48,70_46_94,24_-24_-48,24_24_48,1,4,4,0,query_middle,across_convexity,46.0,ref_lowdim,1,0.0,1,nan,nan,,across_density_regions,70_46_94,nan
sub_58,1,dense_right,img/object-9_120-levels_1D/object9F0Level85F1Level40.png,img/object-9_120-levels_1D/object9F0Level109F1Level40.png,img/object-9_120-levels_1D/object9F0Level61F1Level40.png,0,0,807.2999999970198,p,post_exposure,20,51400,2,,,86,110,62,-24,24,48,24,24,48,86_110_62,62,110,24,-24,-48,24,24,48,86_62_110,24_-24_-48,24_24_48,2,5,5,0,query_middle,convex,62.0,ref_lowdim,1,0.0,1,nan,nan,,dense_region,86_62_110,nan
sub_58,1,dense_right,img/object-9_120-levels_1D/object9F0Level101F1Level40.png,img/object-9_120-levels_1D/object9F0Level109F1Level40.png,img/object-9_120-levels_1D/object9F0Level85F1Level40.png,0,0,987.7000000029802,p,post_exposure,21,53907,2,False,q,102,110,86,-8,16,24,8,16,24,102_110_86,86,110,16,-8,-24,16,8,24,102_86_110,16_-8_-24,8_16_24,2,5,11,8,query_middle,convex,86.0,ref_lowdim,1,0.0,1,ref_highdim,ref_left,0.0,dense_region,102_86_110,ref_towards_dense
sub_58,1,dense_right,img/object-9_120-levels_1D/object9F0Level93F1Level40.png,img/object-9_120-levels_1D/object9F0Level109F1Level40.png,img/object-9_120-levels_1D/object9F0Level69F1Level40.png,0,0,985.5999999940395,q,post_exposure,22,56415,2,True,q,94,110,70,-16,24,40,16,24,40,94_110_70,70,110,24,-16,-40,24,16,40,94_70_110,24_-16_-40,16_24_40,2,6,12,8,query_middle,convex,110.0,ref_highdim,0,1.0,2,ref_highdim,ref_left,1.0,dense_region,94_70_110,ref_towards_dense
sub_58,1,dense_right,img/object-9_120-levels_1D/object9F0Level101F1Level40.png,img/object-9_120-levels_1D/object9F0Level77F1Level40.png,img/object-9_120-levels_1D/object9F0Level109F1Level40.png,0,0,757.5999999940395,q,post_exposure,23,58923,2,False,p,102,78,110,24,-8,-32,24,8,32,102_78_110,78,110,24,-8,-32,24,8,32,102_78_110,24_-8_-32,8_24_32,2,6,12,16,query_middle,convex,78.0,ref_lowdim,1,0.0,1,ref_highdim,ref_right,0.0,dense_region,102_78_110,ref_towards_dense
sub_58,1,dense_right,img/object-9_120-levels_1D/object9F0Level69F1Level40.png,img/object-9_120-levels_1D/object9F0Level85F1Level40.png,img/object-9_120-levels_1D/object9F0Level53F1Level40.png,0,0,1200.0,p,post_exposure,24,61431,2,,,70,86,54,-16,16,32,16,16,32,70_86_54,54,86,16,-16,-32,16,16,32,70_54_86,16_-16_-32,16_16_32,2,6,6,0,query_middle,across_convexity,54.0,ref_lowdim,1,0.0,1,nan,nan,,across_density_regions,70_54_86,nan
sub_58,1,dense_right,img/object-9_120-levels_1D/object9F0Level45F1Level40.png,img/object-9_120-levels_1D/object9F0Level29F1Level40.png,img/object-9_120-levels_1D/object9F0Level53F1Level40.png,0,0,1005.1000000089407,p,post_exposure,25,63939,2,True,p,46,30,54,16,-8,-24,16,8,24,46_30_54,30,54,16,-8,-24,16,8,24,46_30_54,16_-8_-24,8_16_24,2,6,12,8,query_middle,concave,54.0,ref_highdim,0,1.0,2,ref_highdim,ref_right,1.0,sparse_region,46_30_54,ref_towards_dense
sub_58,1,dense_right,img/object-9_120-levels_1D/object9F0Level69F1Level40.png,img/object-9_120-levels_1D/object9F0Level45F1Level40.png,img/object-9_120-levels_1D/object9F0Level93F1Level40.png,0,0,857.0,q,post_exposure,26,66442,2,,,70,46,94,24,-24,-48,24,24,48,70_46_94,46,94,24,-24,-48,24,24,48,70_46_94,24_-24_-48,24_24_48,2,6,6,0,query_middle,across_convexity,46.0,ref_lowdim,1,0.0,1,nan,nan,,across_density_regions,70_46_94,nan
sub_58,1,dense_right,img/object-9_120-levels_1D/object9F0Level37F1Level40.png,img/object-9_120-levels_1D/object9F0Level45F1Level40.png,img/object-9_120-levels_1D/object9F0Level29F1Level40.png,0,0,937.5,q,post_exposure,27,68954,2,,,38,46,30,-8,8,16,8,8,16,38_46_30,30,46,8,-8,-16,8,8,16,38_30_46,8_-8_-16,8_8_16,2,6,6,0,query_middle,concave,46.0,ref_highdim,0,1.0,2,nan,nan,,sparse_region,38_30_46,nan
sub_59,1,dense_right,img/object-9_120-levels_1D/object9F0Level37F1Level40.png,img/object-9_120-levels_1D/object9F0Level101F1Level40.png,img/object-9_120-levels_1D/object9F0Level29F1Level40.png,0,0,1629.0,p,practice,1,3636,1,True,p,38,102,30,-64,8,72,64,8,72,38_102_30,30,102,8,-64,-72,8,64,72,38_30_102,8_-64_-72,8_64_72,1,1,1,56,query_middle,concave,30.0,ref_lowdim,1,0.0,1,ref_lowdim,ref_right,1.0,sparse_region,38_30_102,ref_towards_sparse
sub_59,1,dense_right,img/object-9_120-levels_1D/object9F0Level101F1Level40.png,img/object-9_120-levels_1D/object9F0Level109F1Level40.png,img/object-9_120-levels_1D/object9F0Level85F1Level40.png,0,0,1518.0,q,practice,2,6387,1,True,q,102,110,86,-8,16,24,8,16,24,102_110_86,86,110,16,-8,-24,16,8,24,102_86_110,16_-8_-24,8_16_24,1,1,1,8,query_middle,convex,110.0,ref_highdim,0,1.0,2,ref_highdim,ref_left,1.0,dense_region,102_86_110,ref_towards_dense
sub_59,1,dense_right,img/object-9_120-levels_1D/object9F0Level37F1Level40.png,img/object-9_120-levels_1D/object9F0Level53F1Level40.png,img/object-9_120-levels_1D/object9F0Level29F1Level40.png,0,0,1359.0,p,practice,3,9029,1,True,p,38,54,30,-16,8,24,16,8,24,38_54_30,30,54,8,-16,-24,8,16,24,38_30_54,8_-16_-24,8_16_24,1,1,2,8,query_middle,concave,30.0,ref_lowdim,1,0.0,1,ref_lowdim,ref_right,1.0,sparse_region,38_30_54,ref_towards_sparse
sub_59,1,dense_right,img/object-9_120-levels_1D/object9F0Level93F1Level40.png,img/object-9_120-levels_1D/object9F0Level109F1Level40.png,img/object-9_120-levels_1D/object9F0Level37F1Level40.png,0,0,684.0,q,practice,4,11669,1,True,q,94,110,38,-16,56,72,16,56,72,94_110_38,38,110,56,-16,-72,56,16,72,94_38_110,56_-16_-72,16_56_72,1,1,1,40,query_middle,convex,110.0,ref_highdim,0,1.0,2,ref_highdim,ref_left,1.0,dense_region,94_38_110,ref_towards_dense
sub_59,1,dense_right,img/object-9_120-levels_1D/object9F0Level37F1Level40.png,img/object-9_120-levels_1D/object9F0Level29F1Level40.png,img/object-9_120-levels_1D/object9F0Level53F1Level40.png,0,0,964.0,q,practice,5,14200,1,True,q,38,30,54,8,-16,-24,8,16,24,38_30_54,30,54,8,-16,-24,8,16,24,38_30_54,8_-16_-24,8_16_24,2,2,3,8,query_middle,concave,30.0,ref_lowdim,1,0.0,1,ref_lowdim,ref_left,1.0,sparse_region,38_30_54,ref_towards_sparse
sub_59,1,dense_right,img/object-9_120-levels_1D/object9F0Level101F1Level40.png,img/object-9_120-levels_1D/object9F0Level109F1Level40.png,img/object-9_120-levels_1D/object9F0Level93F1Level40.png,0,0,1213.0,q,practice,6,16731,1,,,102,110,94,-8,8,16,8,8,16,102_110_94,94,110,8,-8,-16,8,8,16,102_94_110,8_-8_-16,8_8_16,1,1,1,0,query_middle,convex,110.0,ref_highdim,0,1.0,2,nan,nan,,dense_region,102_94_110,nan
sub_59,1,dense_right,img/object-9_120-levels_1D/object9F0Level37F1Level40.png,img/object-9_120-levels_1D/object9F0Level29F1Level40.png,img/object-9_120-levels_1D/object9F0Level109F1Level40.png,0,0,813.0,q,practice,7,19262,1,True,q,38,30,110,8,-72,-80,8,72,80,38_30_110,30,110,8,-72,-80,8,72,80,38_30_110,8_-72_-80,8_72_80,1,1,1,64,query_middle,concave,30.0,ref_lowdim,1,0.0,1,ref_lowdim,ref_left,1.0,sparse_region,38_30_110,ref_towards_sparse
sub_59,1,dense_right,img/object-9_120-levels_1D/object9F0Level61F1Level40.png,img/object-9_120-levels_1D/object9F0Level29F1Level40.png,img/object-9_120-levels_1D/object9F0Level101F1Level40.png,0,0,2358.0,q,practice,8,22231,1,True,q,62,30,102,32,-40,-72,32,40,72,62_30_102,30,102,32,-40,-72,32,40,72,62_30_102,32_-40_-72,32_40_72,1,1,1,8,query_middle,concave,30.0,ref_lowdim,1,0.0,1,ref_lowdim,ref_left,1.0,sparse_region,62_30_102,ref_towards_sparse
sub_59,1,dense_right,img/object-9_120-levels_1D/object9F0Level101F1Level40.png,img/object-9_120-levels_1D/object9F0Level93F1Level40.png,img/object-9_120-levels_1D/object9F0Level109F1Level40.png,0,0,1147.0,p,practice,9,24762,1,,,102,94,110,8,-8,-16,8,8,16,102_94_110,94,110,8,-8,-16,8,8,16,102_94_110,8_-8_-16,8_8_16,2,2,2,0,query_middle,convex,110.0,ref_highdim,0,1.0,2,nan,nan,,dense_region,102_94_110,nan
sub_59,1,dense_right,img/object-9_120-levels_1D/object9F0Level37F1Level40.png,img/object-9_120-levels_1D/object9F0Level29F1Level40.png,img/object-9_120-levels_1D/object9F0Level101F1Level40.png,0,0,637.0,q,practice,10,27293,1,True,q,38,30,102,8,-64,-72,8,64,72,38_30_102,30,102,8,-64,-72,8,64,72,38_30_102,8_-64_-72,8_64_72,2,2,2,56,query_middle,concave,30.0,ref_lowdim,1,0.0,1,ref_lowdim,ref_left,1.0,sparse_region,38_30_102,ref_towards_sparse
sub_59,1,dense_right,img/object-9_120-levels_1D/object9F0Level61F1Level40.png,img/object-9_120-levels_1D/object9F0Level101F1Level40.png,img/object-9_120-levels_1D/object9F0Level29F1Level40.png,0,0,1586.0,p,practice,11,29825,1,True,p,62,102,30,-40,32,72,40,32,72,62_102_30,30,102,32,-40,-72,32,40,72,62_30_102,32_-40_-72,32_40_72,2,2,2,8,query_middle,concave,30.0,ref_lowdim,1,0.0,1,ref_lowdim,ref_right,1.0,sparse_region,62_30_102,ref_towards_sparse
sub_59,1,dense_right,img/object-9_120-levels_1D/object9F0Level93F1Level40.png,img/object-9_120-levels_1D/object9F0Level37F1Level40.png,img/object-9_120-levels_1D/object9F0Level109F1Level40.png,0,0,1713.0,p,practice,12,32355,1,True,p,94,38,110,56,-16,-72,56,16,72,94_38_110,38,110,56,-16,-72,56,16,72,94_38_110,56_-16_-72,16_56_72,2,2,2,40,query_middle,convex,110.0,ref_highdim,0,1.0,2,ref_highdim,ref_right,1.0,dense_region,94_38_110,ref_towards_dense
sub_59,1,dense_right,img/object-9_120-levels_1D/object9F0Level45F1Level40.png,img/object-9_120-levels_1D/object9F0Level37F1Level40.png,img/object-9_120-levels_1D/object9F0Level101F1Level40.png,0,0,640.0,q,practice,13,34996,1,True,q,46,38,102,8,-56,-64,8,56,64,46_38_102,38,102,8,-56,-64,8,56,64,46_38_102,8_-56_-64,8_56_64,1,1,1,48,query_middle,concave,38.0,ref_lowdim,1,0.0,1,ref_lowdim,ref_left,1.0,sparse_region,46_38_102,ref_towards_sparse
sub_59,1,dense_right,img/object-9_120-levels_1D/object9F0Level37F1Level40.png,img/object-9_120-levels_1D/object9F0Level101F1Level40.png,img/object-9_120-levels_1D/object9F0Level29F1Level40.png,0,0,903.0,p,practice,14,37527,1,True,p,38,102,30,-64,8,72,64,8,72,38_102_30,30,102,8,-64,-72,8,64,72,38_30_102,8_-64_-72,8_64_72,3,3,3,56,query_middle,concave,30.0,ref_lowdim,1,0.0,1,ref_lowdim,ref_right,1.0,sparse_region,38_30_102,ref_towards_sparse
sub_59,1,dense_right,img/object-9_120-levels_1D/object9F0Level77F1Level40.png,img/object-9_120-levels_1D/object9F0Level109F1Level40.png,img/object-9_120-levels_1D/object9F0Level45F1Level40.png,0,0,682.0,q,practice,15,40168,1,,,78,110,46,-32,32,64,32,32,64,78_110_46,46,110,32,-32,-64,32,32,64,78_46_110,32_-32_-64,32_32_64,1,1,1,0,query_middle,convex,110.0,ref_highdim,0,1.0,2,nan,nan,,dense_region,78_46_110,nan
sub_59,1,dense_right,img/object-9_120-levels_1D/object9F0Level45F1Level40.png,img/object-9_120-levels_1D/object9F0Level101F1Level40.png,img/object-9_120-levels_1D/object9F0Level37F1Level40.png,0,0,1013.0,p,practice,16,42699,1,True,p,46,102,38,-56,8,64,56,8,64,46_102_38,38,102,8,-56,-64,8,56,64,46_38_102,8_-56_-64,8_56_64,2,2,2,48,query_middle,concave,38.0,ref_lowdim,1,0.0,1,ref_lowdim,ref_right,1.0,sparse_region,46_38_102,ref_towards_sparse
sub_59,1,dense_right,img/object-9_120-levels_1D/object9F0Level101F1Level40.png,img/object-9_120-levels_1D/object9F0Level85F1Level40.png,img/object-9_120-levels_1D/object9F0Level109F1Level40.png,0,0,906.0,p,practice,17,45231,1,True,p,102,86,110,16,-8,-24,16,8,24,102_86_110,86,110,16,-8,-24,16,8,24,102_86_110,16_-8_-24,8_16_24,2,2,4,8,query_middle,convex,110.0,ref_highdim,0,1.0,2,ref_highdim,ref_right,1.0,dense_region,102_86_110,ref_towards_dense
sub_59,1,dense_right,img/object-9_120-levels_1D/object9F0Level37F1Level40.png,img/object-9_120-levels_1D/object9F0Level109F1Level40.png,img/object-9_120-levels_1D/object9F0Level29F1Level40.png,0,0,1061.0,p,practice,18,47762,1,True,p,38,110,30,-72,8,80,72,8,80,38_110_30,30,110,8,-72,-80,8,72,80,38_30_110,8_-72_-80,8_72_80,2,2,2,64,query_middle,concave,30.0,ref_lowdim,1,0.0,1,ref_lowdim,ref_right,1.0,sparse_region,38_30_110,ref_towards_sparse
sub_59,1,dense_right,img/object-9_120-levels_1D/object9F0Level77F1Level40.png,img/object-9_120-levels_1D/object9F0Level45F1Level40.png,img/object-9_120-levels_1D/object9F0Level109F1Level40.png,0,0,1334.0,q,practice,19,50293,1,,,78,46,110,32,-32,-64,32,32,64,78_46_110,46,110,32,-32,-64,32,32,64,78_46_110,32_-32_-64,32_32_64,2,2,2,0,query_middle,convex,46.0,ref_lowdim,1,0.0,1,nan,nan,,dense_region,78_46_110,nan
sub_59,1,dense_right,img/object-9_120-levels_1D/object9F0Level37F1Level40.png,img/object-9_120-levels_1D/object9F0Level29F1Level40.png,img/object-9_120-levels_1D/object9F0Level101F1Level40.png,0,0,566.0,q,practice,20,52824,1,True,q,38,30,102,8,-64,-72,8,64,72,38_30_102,30,102,8,-64,-72,8,64,72,38_30_102,8_-64_-72,8_64_72,4,4,4,56,query_middle,concave,30.0,ref_lowdim,1,0.0,1,ref_lowdim,ref_left,1.0,sparse_region,38_30_102,ref_towards_sparse
sub_59,1,dense_right,img/object-9_120-levels_1D/object9F0Level69F1Level40.png,img/object-9_120-levels_1D/object9F0Level77F1Level40.png,img/object-9_120-levels_1D/object9F0Level45F1Level40.png,0,0,1022.0,q,pre_exposure,1,3664,1,True,q,70,78,46,-8,24,32,8,24,32,70_78_46,46,78,24,-8,-32,24,8,32,70_46_78,24_-8_-32,8_24_32,1,1,1,16,query_middle,across_convexity,78.0,ref_highdim,0,1.0,2,ref_highdim,ref_left,1.0,across_density_regions,70_46_78,ref_towards_dense
sub_59,1,dense_right,img/object-9_120-levels_1D/object9F0Level85F1Level40.png,img/object-9_120-levels_1D/object9F0Level109F1Level40.png,img/object-9_120-levels_1D/object9F0Level77F1Level40.png,0,0,1249.0,p,pre_exposure,2,6343,1,True,p,86,110,78,-24,8,32,24,8,32,86_110_78,78,110,8,-24,-32,8,24,32,86_78_110,8_-24_-32,8_24_32,1,1,2,16,query_middle,convex,78.0,ref_lowdim,1,0.0,1,ref_lowdim,ref_right,1.0,dense_region,86_78_110,ref_towards_sparse
sub_59,1,dense_right,img/object-9_120-levels_1D/object9F0Level53F1Level40.png,img/object-9_120-levels_1D/object9F0Level77F1Level40.png,img/object-9_120-levels_1D/object9F0Level29F1Level40.png,0,0,1061.0,p,pre_exposure,3,9078,1,,,54,78,30,-24,24,48,24,24,48,54_78_30,30,78,24,-24,-48,24,24,48,54_30_78,24_-24_-48,24_24_48,1,1,1,0,query_middle,concave,30.0,ref_lowdim,1,0.0,1,nan,nan,,sparse_region,54_30_78,nan
sub_59,1,dense_right,img/object-9_120-levels_1D/object9F0Level69F1Level40.png,img/object-9_120-levels_1D/object9F0Level77F1Level40.png,img/object-9_120-levels_1D/object9F0Level53F1Level40.png,0,0,685.0,q,pre_exposure,4,11608,1,True,q,70,78,54,-8,16,24,8,16,24,70_78_54,54,78,16,-8,-24,16,8,24,70_54_78,16_-8_-24,8_16_24,1,1,1,8,query_middle,across_convexity,78.0,ref_highdim,0,1.0,2,ref_highdim,ref_left,1.0,across_density_regions,70_54_78,ref_towards_dense
sub_59,1,dense_right,img/object-9_120-levels_1D/object9F0Level85F1Level40.png,img/object-9_120-levels_1D/object9F0Level109F1Level40.png,img/object-9_120-levels_1D/object9F0Level69F1Level40.png,0,0,1186.0,q,pre_exposure,5,14141,1,False,p,86,110,70,-24,16,40,24,16,40,86_110_70,70,110,16,-24,-40,16,24,40,86_70_110,16_-24_-40,16_24_40,1,1,1,8,query_middle,convex,110.0,ref_highdim,0,1.0,2,ref_lowdim,ref_right,0.0,dense_region,86_70_110,ref_towards_sparse
sub_59,1,dense_right,img/object-9_120-levels_1D/object9F0Level69F1Level40.png,img/object-9_120-levels_1D/object9F0Level61F1Level40.png,img/object-9_120-levels_1D/object9F0Level85F1Level40.png,0,0,1029.0,p,pre_exposure,6,16734,1,False,q,70,62,86,8,-16,-24,8,16,24,70_62_86,62,86,8,-16,-24,8,16,24,70_62_86,8_-16_-24,8_16_24,1,1,2,8,query_middle,across_convexity,86.0,ref_highdim,0,1.0,2,ref_lowdim,ref_left,0.0,across_density_regions,70_62_86,ref_towards_sparse
sub_59,1,dense_right,img/object-9_120-levels_1D/object9F0Level85F1Level40.png,img/object-9_120-levels_1D/object9F0Level61F1Level40.png,img/object-9_120-levels_1D/object9F0Level109F1Level40.png,0,0,974.0,p,pre_exposure,7,19265,1,,,86,62,110,24,-24,-48,24,24,48,86_62_110,62,110,24,-24,-48,24,24,48,86_62_110,24_-24_-48,24_24_48,1,2,2,0,query_middle,convex,110.0,ref_highdim,0,1.0,2,nan,nan,,dense_region,86_62_110,nan
sub_59,1,dense_right,img/object-9_120-levels_1D/object9F0Level69F1Level40.png,img/object-9_120-levels_1D/object9F0Level93F1Level40.png,img/object-9_120-levels_1D/object9F0Level61F1Level40.png,0,0,897.0,p,pre_exposure,8,21905,1,True,p,70,94,62,-24,8,32,24,8,32,70_94_62,62,94,8,-24,-32,8,24,32,70_62_94,8_-24_-32,8_24_32,1,2,3,16,query_middle,across_convexity,62.0,ref_lowdim,1,0.0,1,ref_lowdim,ref_right,1.0,across_density_regions,70_62_94,ref_towards_sparse
sub_59,1,dense_right,img/object-9_120-levels_1D/object9F0Level53F1Level40.png,img/object-9_120-levels_1D/object9F0Level29F1Level40.png,img/object-9_120-levels_1D/object9F0Level77F1Level40.png,0,0,710.0,q,pre_exposure,9,24433,1,,,54,30,78,24,-24,-48,24,24,48,54_30_78,30,78,24,-24,-48,24,24,48,54_30_78,24_-24_-48,24_24_48,2,3,3,0,query_middle,concave,30.0,ref_lowdim,1,0.0,1,nan,nan,,sparse_region,54_30_78,nan
sub_59,1,dense_right,img/object-9_120-levels_1D/object9F0Level93F1Level40.png,img/object-9_120-levels_1D/object9F0Level85F1Level40.png,img/object-9_120-levels_1D/object9F0Level109F1Level40.png,0,0,851.0,p,pre_exposure,10,26965,1,False,q,94,86,110,8,-16,-24,8,16,24,94_86_110,86,110,8,-16,-24,8,16,24,94_86_110,8_-16_-24,8_16_24,1,2,3,8,query_middle,convex,110.0,ref_highdim,0,1.0,2,ref_lowdim,ref_left,0.0,dense_region,94_86_110,ref_towards_sparse
sub_59,1,dense_right,img/object-9_120-levels_1D/object9F0Level45F1Level40.png,img/object-9_120-levels_1D/object9F0Level29F1Level40.png,img/object-9_120-levels_1D/object9F0Level69F1Level40.png,0,0,1546.0,q,pre_exposure,11,29495,1,True,q,46,30,70,16,-24,-40,16,24,40,46_30_70,30,70,16,-24,-40,16,24,40,46_30_70,16_-24_-40,16_24_40,1,2,2,8,query_middle,concave,30.0,ref_lowdim,1,0.0,1,ref_lowdim,ref_left,1.0,sparse_region,46_30_70,ref_towards_sparse
sub_59,1,dense_right,img/object-9_120-levels_1D/object9F0Level85F1Level40.png,img/object-9_120-levels_1D/object9F0Level109F1Level40.png,img/object-9_120-levels_1D/object9F0Level61F1Level40.png,0,0,1435.0,q,pre_exposure,12,32025,1,,,86,110,62,-24,24,48,24,24,48,86_110_62,62,110,24,-24,-48,24,24,48,86_62_110,24_-24_-48,24_24_48,2,4,4,0,query_middle,convex,110.0,ref_highdim,0,1.0,2,nan,nan,,dense_region,86_62_110,nan
sub_59,1,dense_right,img/object-9_120-levels_1D/object9F0Level93F1Level40.png,img/object-9_120-levels_1D/object9F0Level109F1Level40.png,img/object-9_120-levels_1D/object9F0Level77F1Level40.png,0,0,1221.0,q,pre_exposure,13,34554,1,,,94,110,78,-16,16,32,16,16,32,94_110_78,78,110,16,-16,-32,16,16,32,94_78_110,16_-16_-32,16_16_32,1,1,1,0,query_middle,convex,110.0,ref_highdim,0,1.0,2,nan,nan,,dense_region,94_78_110,nan
sub_59,1,dense_right,img/object-9_120-levels_1D/object9F0Level53F1Level40.png,img/object-9_120-levels_1D/object9F0Level29F1Level40.png,img/object-9_120-levels_1D/object9F0Level69F1Level40.png,0,0,1095.0,q,pre_exposure,14,37084,1,False,p,54,30,70,24,-16,-40,24,16,40,54_30_70,30,70,24,-16,-40,24,16,40,54_30_70,24_-16_-40,16_24_40,1,1,3,8,query_middle,concave,30.0,ref_lowdim,1,0.0,1,ref_highdim,ref_right,0.0,sparse_region,54_30_70,ref_towards_dense
sub_59,1,dense_right,img/object-9_120-levels_1D/object9F0Level85F1Level40.png,img/object-9_120-levels_1D/object9F0Level77F1Level40.png,img/object-9_120-levels_1D/object9F0Level109F1Level40.png,0,0,986.0,p,pre_exposure,15,39608,1,False,q,86,78,110,8,-24,-32,8,24,32,86_78_110,78,110,8,-24,-32,8,24,32,86_78_110,8_-24_-32,8_24_32,2,3,4,16,query_middle,convex,110.0,ref_highdim,0,1.0,2,ref_lowdim,ref_left,0.0,dense_region,86_78_110,ref_towards_sparse
sub_59,1,dense_right,img/object-9_120-levels_1D/object9F0Level37F1Level40.png,img/object-9_120-levels_1D/object9F0Level29F1Level40.png,img/object-9_120-levels_1D/object9F0Level61F1Level40.png,0,0,634.0,q,pre_exposure,16,42227,1,True,q,38,30,62,8,-24,-32,8,24,32,38_30_62,30,62,8,-24,-32,8,24,32,38_30_62,8_-24_-32,8_24_32,1,4,5,16,query_middle,concave,30.0,ref_lowdim,1,0.0,1,ref_lowdim,ref_left,1.0,sparse_region,38_30_62,ref_towards_sparse
sub_59,1,dense_right,img/object-9_120-levels_1D/object9F0Level69F1Level40.png,img/object-9_120-levels_1D/object9F0Level45F1Level40.png,img/object-9_120-levels_1D/object9F0Level77F1Level40.png,0,0,1135.0,p,pre_exposure,17,44749,1,True,p,70,46,78,24,-8,-32,24,8,32,70_46_78,46,78,24,-8,-32,24,8,32,70_46_78,24_-8_-32,8_24_32,2,2,6,16,query_middle,across_convexity,78.0,ref_highdim,0,1.0,2,ref_highdim,ref_right,1.0,across_density_regions,70_46_78,ref_towards_dense
sub_59,1,dense_right,img/object-9_120-levels_1D/object9F0Level53F1Level40.png,img/object-9_120-levels_1D/object9F0Level29F1Level40.png,img/object-9_120-levels_1D/object9F0Level61F1Level40.png,0,0,1793.0,p,pre_exposure,18,47279,1,True,p,54,30,62,24,-8,-32,24,8,32,54_30_62,30,62,24,-8,-32,24,8,32,54_30_62,24_-8_-32,8_24_32,1,3,7,16,query_middle,concave,62.0,ref_highdim,0,1.0,2,ref_highdim,ref_right,1.0,sparse_region,54_30_62,ref_towards_dense
sub_59,1,dense_right,img/object-9_120-levels_1D/object9F0Level93F1Level40.png,img/object-9_120-levels_1D/object9F0Level69F1Level40.png,img/object-9_120-levels_1D/object9F0Level109F1Level40.png,0,0,1336.0,p,pre_exposure,19,49810,1,True,p,94,70,110,24,-16,-40,24,16,40,94_70_110,70,110,24,-16,-40,24,16,40,94_70_110,24_-16_-40,16_24_40,1,2,4,8,query_middle,convex,110.0,ref_highdim,0,1.0,2,ref_highdim,ref_right,1.0,dense_region,94_70_110,ref_towards_dense
sub_59,1,dense_right,img/object-9_120-levels_1D/object9F0Level69F1Level40.png,img/object-9_120-levels_1D/object9F0Level93F1Level40.png,img/object-9_120-levels_1D/object9F0Level45F1Level40.png,0,0,1522.0,p,pre_exposure,20,52333,1,,,70,94,46,-24,24,48,24,24,48,70_94_46,46,94,24,-24,-48,24,24,48,70_46_94,24_-24_-48,24_24_48,1,5,5,0,query_middle,across_convexity,46.0,ref_lowdim,1,0.0,1,nan,nan,,across_density_regions,70_46_94,nan
sub_59,1,dense_right,img/object-9_120-levels_1D/object9F0Level45F1Level40.png,img/object-9_120-levels_1D/object9F0Level61F1Level40.png,img/object-9_120-levels_1D/object9F0Level29F1Level40.png,0,0,1048.0,p,pre_exposure,21,54864,1,,,46,62,30,-16,16,32,16,16,32,46_62_30,30,62,16,-16,-32,16,16,32,46_30_62,16_-16_-32,16_16_32,1,2,2,0,query_middle,concave,30.0,ref_lowdim,1,0.0,1,nan,nan,,sparse_region,46_30_62,nan
sub_59,1,dense_right,img/object-9_120-levels_1D/object9F0Level69F1Level40.png,img/object-9_120-levels_1D/object9F0Level93F1Level40.png,img/object-9_120-levels_1D/object9F0Level53F1Level40.png,0,0,1260.0,p,pre_exposure,22,57396,1,True,p,70,94,54,-24,16,40,24,16,40,70_94_54,54,94,16,-24,-40,16,24,40,70_54_94,16_-24_-40,16_24_40,1,3,5,8,query_middle,across_convexity,54.0,ref_lowdim,1,0.0,1,ref_lowdim,ref_right,1.0,across_density_regions,70_54_94,ref_towards_sparse
sub_59,1,dense_right,img/object-9_120-levels_1D/object9F0Level101F1Level40.png,img/object-9_120-levels_1D/object9F0Level93F1Level40.png,img/object-9_120-levels_1D/object9F0Level109F1Level40.png,0,0,1274.0,p,pre_exposure,23,60020,1,,,102,94,110,8,-8,-16,8,8,16,102_94_110,94,110,8,-8,-16,8,8,16,102_94_110,8_-8_-16,8_8_16,1,1,1,0,query_middle,convex,110.0,ref_highdim,0,1.0,2,nan,nan,,dense_region,102_94_110,nan
sub_59,1,dense_right,img/object-9_120-levels_1D/object9F0Level69F1Level40.png,img/object-9_120-levels_1D/object9F0Level77F1Level40.png,img/object-9_120-levels_1D/object9F0Level61F1Level40.png,0,0,1915.0,p,pre_exposure,24,62552,1,,,70,78,62,-8,8,16,8,8,16,70_78_62,62,78,8,-8,-16,8,8,16,70_62_78,8_-8_-16,8_8_16,1,2,2,0,query_middle,across_convexity,62.0,ref_lowdim,1,0.0,1,nan,nan,,across_density_regions,70_62_78,nan
sub_59,1,dense_right,img/object-9_120-levels_1D/object9F0Level45F1Level40.png,img/object-9_120-levels_1D/object9F0Level53F1Level40.png,img/object-9_120-levels_1D/object9F0Level29F1Level40.png,0,0,935.0,q,pre_exposure,25,65082,1,True,q,46,54,30,-8,16,24,8,16,24,46_54_30,30,54,16,-8,-24,16,8,24,46_30_54,16_-8_-24,8_16_24,1,2,4,8,query_middle,concave,54.0,ref_highdim,0,1.0,2,ref_highdim,ref_left,1.0,sparse_region,46_30_54,ref_towards_dense
sub_59,1,dense_right,img/object-9_120-levels_1D/object9F0Level93F1Level40.png,img/object-9_120-levels_1D/object9F0Level109F1Level40.png,img/object-9_120-levels_1D/object9F0Level69F1Level40.png,0,0,829.0,q,pre_exposure,26,67615,1,True,q,94,110,70,-16,24,40,16,24,40,94_110_70,70,110,24,-16,-40,24,16,40,94_70_110,24_-16_-40,16_24_40,2,3,6,8,query_middle,convex,110.0,ref_highdim,0,1.0,2,ref_highdim,ref_left,1.0,dense_region,94_70_110,ref_towards_dense
sub_59,1,dense_right,img/object-9_120-levels_1D/object9F0Level69F1Level40.png,img/object-9_120-levels_1D/object9F0Level61F1Level40.png,img/object-9_120-levels_1D/object9F0Level93F1Level40.png,0,0,1207.0,q,pre_exposure,27,70146,1,True,q,70,62,94,8,-24,-32,8,24,32,70_62_94,62,94,8,-24,-32,8,24,32,70_62_94,8_-24_-32,8_24_32,2,5,8,16,query_middle,across_convexity,62.0,ref_lowdim,1,0.0,1,ref_lowdim,ref_left,1.0,across_density_regions,70_62_94,ref_towards_sparse
sub_59,1,dense_right,img/object-9_120-levels_1D/object9F0Level37F1Level40.png,img/object-9_120-levels_1D/object9F0Level61F1Level40.png,img/object-9_120-levels_1D/object9F0Level29F1Level40.png,0,0,2012.0,p,pre_exposure,1,4002,2,True,p,38,62,30,-24,8,32,24,8,32,38_62_30,30,62,8,-24,-32,8,24,32,38_30_62,8_-24_-32,8_24_32,2,6,9,16,query_middle,concave,30.0,ref_lowdim,1,0.0,1,ref_lowdim,ref_right,1.0,sparse_region,38_30_62,ref_towards_sparse
sub_59,1,dense_right,img/object-9_120-levels_1D/object9F0Level93F1Level40.png,img/object-9_120-levels_1D/object9F0Level109F1Level40.png,img/object-9_120-levels_1D/object9F0Level85F1Level40.png,0,0,1438.0,q,pre_exposure,2,6783,2,False,p,94,110,86,-16,8,24,16,8,24,94_110_86,86,110,8,-16,-24,8,16,24,94_86_110,8_-16_-24,8_16_24,2,3,5,8,query_middle,convex,110.0,ref_highdim,0,1.0,2,ref_lowdim,ref_right,0.0,dense_region,94_86_110,ref_towards_sparse
sub_59,1,dense_right,img/object-9_120-levels_1D/object9F0Level85F1Level40.png,img/object-9_120-levels_1D/object9F0Level69F1Level40.png,img/object-9_120-levels_1D/object9F0Level109F1Level40.png,0,0,1345.0,p,pre_exposure,3,9409,2,False,q,86,70,110,16,-24,-40,16,24,40,86_70_110,70,110,16,-24,-40,16,24,40,86_70_110,16_-24_-40,16_24_40,2,4,7,8,query_middle,convex,110.0,ref_highdim,0,1.0,2,ref_lowdim,ref_left,0.0,dense_region,86_70_110,ref_towards_sparse
sub_59,1,dense_right,img/object-9_120-levels_1D/object9F0Level101F1Level40.png,img/object-9_120-levels_1D/object9F0Level85F1Level40.png,img/object-9_120-levels_1D/object9F0Level109F1Level40.png,0,0,1008.0,p,pre_exposure,4,12048,2,True,p,102,86,110,16,-8,-24,16,8,24,102_86_110,86,110,16,-8,-24,16,8,24,102_86_110,16_-8_-24,8_16_24,1,3,6,8,query_middle,convex,110.0,ref_highdim,0,1.0,2,ref_highdim,ref_right,1.0,dense_region,102_86_110,ref_towards_dense
sub_59,1,dense_right,img/object-9_120-levels_1D/object9F0Level69F1Level40.png,img/object-9_120-levels_1D/object9F0Level53F1Level40.png,img/object-9_120-levels_1D/object9F0Level93F1Level40.png,0,0,886.0,q,pre_exposure,5,14673,2,True,q,70,54,94,16,-24,-40,16,24,40,70_54_94,54,94,16,-24,-40,16,24,40,70_54_94,16_-24_-40,16_24_40,2,5,8,8,query_middle,across_convexity,54.0,ref_lowdim,1,0.0,1,ref_lowdim,ref_left,1.0,across_density_regions,70_54_94,ref_towards_sparse
sub_59,1,dense_right,img/object-9_120-levels_1D/object9F0Level37F1Level40.png,img/object-9_120-levels_1D/object9F0Level45F1Level40.png,img/object-9_120-levels_1D/object9F0Level29F1Level40.png,0,0,1434.0,p,pre_exposure,6,17290,2,,,38,46,30,-8,8,16,8,8,16,38_46_30,30,46,8,-8,-16,8,8,16,38_30_46,8_-8_-16,8_8_16,1,3,3,0,query_middle,concave,30.0,ref_lowdim,1,0.0,1,nan,nan,,sparse_region,38_30_46,nan
sub_59,1,dense_right,img/object-9_120-levels_1D/object9F0Level69F1Level40.png,img/object-9_120-levels_1D/object9F0Level53F1Level40.png,img/object-9_120-levels_1D/object9F0Level77F1Level40.png,0,0,1029.0,p,pre_exposure,7,19916,2,True,p,70,54,78,16,-8,-24,16,8,24,70_54_78,54,78,16,-8,-24,16,8,24,70_54_78,16_-8_-24,8_16_24,2,4,7,8,query_middle,across_convexity,78.0,ref_highdim,0,1.0,2,ref_highdim,ref_right,1.0,across_density_regions,70_54_78,ref_towards_dense
sub_59,1,dense_right,img/object-9_120-levels_1D/object9F0Level93F1Level40.png,img/object-9_120-levels_1D/object9F0Level77F1Level40.png,img/object-9_120-levels_1D/object9F0Level109F1Level40.png,0,0,924.0,p,pre_exposure,8,22447,2,,,94,78,110,16,-16,-32,16,16,32,94_78_110,78,110,16,-16,-32,16,16,32,94_78_110,16_-16_-32,16_16_32,2,3,3,0,query_middle,convex,110.0,ref_highdim,0,1.0,2,nan,nan,,dense_region,94_78_110,nan
sub_59,1,dense_right,img/object-9_120-levels_1D/object9F0Level45F1Level40.png,img/object-9_120-levels_1D/object9F0Level69F1Level40.png,img/object-9_120-levels_1D/object9F0Level29F1Level40.png,0,0,810.0,p,pre_exposure,9,24967,2,True,p,46,70,30,-24,16,40,24,16,40,46_70_30,30,70,16,-24,-40,16,24,40,46_30_70,16_-24_-40,16_24_40,2,6,9,8,query_middle,concave,30.0,ref_lowdim,1,0.0,1,ref_lowdim,ref_right,1.0,sparse_region,46_30_70,ref_towards_sparse
sub_59,1,dense_right,img/object-9_120-levels_1D/object9F0Level69F1Level40.png,img/object-9_120-levels_1D/object9F0Level45F1Level40.png,img/object-9_120-levels_1D/object9F0Level85F1Level40.png,0,0,1069.0,q,pre_exposure,10,27498,2,False,p,70,46,86,24,-16,-40,24,16,40,70_46_86,46,86,24,-16,-40,24,16,40,70_46_86,24_-16_-40,16_24_40,1,4,10,8,query_middle,across_convexity,46.0,ref_lowdim,1,0.0,1,ref_highdim,ref_right,0.0,across_density_regions,70_46_86,ref_towards_dense
sub_59,1,dense_right,img/object-9_120-levels_1D/object9F0Level37F1Level40.png,img/object-9_120-levels_1D/object9F0Level53F1Level40.png,img/object-9_120-levels_1D/object9F0Level29F1Level40.png,0,0,1005.0,q,pre_exposure,11,30029,2,False,p,38,54,30,-16,8,24,16,8,24,38_54_30,30,54,8,-16,-24,8,16,24,38_30_54,8_-16_-24,8_16_24,1,4,8,8,query_middle,concave,54.0,ref_highdim,0,1.0,2,ref_lowdim,ref_right,0.0,sparse_region,38_30_54,ref_towards_sparse
sub_59,1,dense_right,img/object-9_120-levels_1D/object9F0Level101F1Level40.png,img/object-9_120-levels_1D/object9F0Level109F1Level40.png,img/object-9_120-levels_1D/object9F0Level77F1Level40.png,0,0,1437.0,q,pre_exposure,12,32560,2,True,q,102,110,78,-8,24,32,8,24,32,102_110_78,78,110,24,-8,-32,24,8,32,102_78_110,24_-8_-32,8_24_32,1,4,10,16,query_middle,convex,110.0,ref_highdim,0,1.0,2,ref_highdim,ref_left,1.0,dense_region,102_78_110,ref_towards_dense
sub_59,1,dense_right,img/object-9_120-levels_1D/object9F0Level69F1Level40.png,img/object-9_120-levels_1D/object9F0Level85F1Level40.png,img/object-9_120-levels_1D/object9F0Level53F1Level40.png,0,0,1206.0,p,pre_exposure,13,35082,2,,,70,86,54,-16,16,32,16,16,32,70_86_54,54,86,16,-16,-32,16,16,32,70_54_86,16_-16_-32,16_16_32,1,4,4,0,query_middle,across_convexity,54.0,ref_lowdim,1,0.0,1,nan,nan,,across_density_regions,70_54_86,nan
sub_59,1,dense_right,img/object-9_120-levels_1D/object9F0Level45F1Level40.png,img/object-9_120-levels_1D/object9F0Level29F1Level40.png,img/object-9_120-levels_1D/object9F0Level53F1Level40.png,0,0,958.0,p,pre_exposure,14,37612,2,True,p,46,30,54,16,-8,-24,16,8,24,46_30_54,30,54,16,-8,-24,16,8,24,46_30_54,16_-8_-24,8_16_24,2,5,9,8,query_middle,concave,54.0,ref_highdim,0,1.0,2,ref_highdim,ref_right,1.0,sparse_region,46_30_54,ref_towards_dense
sub_59,1,dense_right,img/object-9_120-levels_1D/object9F0Level101F1Level40.png,img/object-9_120-levels_1D/object9F0Level77F1Level40.png,img/object-9_120-levels_1D/object9F0Level109F1Level40.png,0,0,1188.0,p,pre_exposure,15,40141,2,True,p,102,78,110,24,-8,-32,24,8,32,102_78_110,78,110,24,-8,-32,24,8,32,102_78_110,24_-8_-32,8_24_32,2,5,11,16,query_middle,convex,110.0,ref_highdim,0,1.0,2,ref_highdim,ref_right,1.0,dense_region,102_78_110,ref_towards_dense
sub_59,1,dense_right,img/object-9_120-levels_1D/object9F0Level69F1Level40.png,img/object-9_120-levels_1D/object9F0Level61F1Level40.png,img/object-9_120-levels_1D/object9F0Level77F1Level40.png,0,0,861.0,p,pre_exposure,16,42671,2,,,70,62,78,8,-8,-16,8,8,16,70_62_78,62,78,8,-8,-16,8,8,16,70_62_78,8_-8_-16,8_8_16,2,4,4,0,query_middle,across_convexity,78.0,ref_highdim,0,1.0,2,nan,nan,,across_density_regions,70_62_78,nan
sub_59,1,dense_right,img/object-9_120-levels_1D/object9F0Level53F1Level40.png,img/object-9_120-levels_1D/object9F0Level61F1Level40.png,img/object-9_120-levels_1D/object9F0Level29F1Level40.png,0,0,1397.0,p,pre_exposure,17,45202,2,False,q,54,62,30,-8,24,32,8,24,32,54_62_30,30,62,24,-8,-32,24,8,32,54_30_62,24_-8_-32,8_24_32,2,6,12,16,query_middle,concave,30.0,ref_lowdim,1,0.0,1,ref_highdim,ref_left,0.0,sparse_region,54_30_62,ref_towards_dense
sub_59,1,dense_right,img/object-9_120-levels_1D/object9F0Level45F1Level40.png,img/object-9_120-levels_1D/object9F0Level29F1Level40.png,img/object-9_120-levels_1D/object9F0Level61F1Level40.png,0,0,999.0,p,pre_exposure,18,47733,2,,,46,30,62,16,-16,-32,16,16,32,46_30_62,30,62,16,-16,-32,16,16,32,46_30_62,16_-16_-32,16_16_32,2,5,5,0,query_middle,concave,62.0,ref_highdim,0,1.0,2,nan,nan,,sparse_region,46_30_62,nan
sub_59,1,dense_right,img/object-9_120-levels_1D/object9F0Level69F1Level40.png,img/object-9_120-levels_1D/object9F0Level45F1Level40.png,img/object-9_120-levels_1D/object9F0Level93F1Level40.png,0,0,1101.0,q,pre_exposure,19,50262,2,,,70,46,94,24,-24,-48,24,24,48,70_46_94,46,94,24,-24,-48,24,24,48,70_46_94,24_-24_-48,24_24_48,2,6,6,0,query_middle,across_convexity,46.0,ref_lowdim,1,0.0,1,nan,nan,,across_density_regions,70_46_94,nan
sub_59,1,dense_right,img/object-9_120-levels_1D/object9F0Level37F1Level40.png,img/object-9_120-levels_1D/object9F0Level29F1Level40.png,img/object-9_120-levels_1D/object9F0Level45F1Level40.png,0,0,1687.0,p,pre_exposure,20,52798,2,,,38,30,46,8,-8,-16,8,8,16,38_30_46,30,46,8,-8,-16,8,8,16,38_30_46,8_-8_-16,8_8_16,2,5,5,0,query_middle,concave,46.0,ref_highdim,0,1.0,2,nan,nan,,sparse_region,38_30_46,nan
sub_59,1,dense_right,img/object-9_120-levels_1D/object9F0Level69F1Level40.png,img/object-9_120-levels_1D/object9F0Level85F1Level40.png,img/object-9_120-levels_1D/object9F0Level45F1Level40.png,0,0,1262.0,p,pre_exposure,21,55327,2,False,q,70,86,46,-16,24,40,16,24,40,70_86_46,46,86,24,-16,-40,24,16,40,70_46_86,24_-16_-40,16_24_40,2,5,11,8,query_middle,across_convexity,46.0,ref_lowdim,1,0.0,1,ref_highdim,ref_left,0.0,across_density_regions,70_46_86,ref_towards_dense
sub_59,1,dense_right,img/object-9_120-levels_1D/object9F0Level37F1Level40.png,img/object-9_120-levels_1D/object9F0Level29F1Level40.png,img/object-9_120-levels_1D/object9F0Level53F1Level40.png,0,0,886.0,q,pre_exposure,22,57858,2,True,q,38,30,54,8,-16,-24,8,16,24,38_30_54,30,54,8,-16,-24,8,16,24,38_30_54,8_-16_-24,8_16_24,2,5,10,8,query_middle,concave,30.0,ref_lowdim,1,0.0,1,ref_lowdim,ref_left,1.0,sparse_region,38_30_54,ref_towards_sparse
sub_59,1,dense_right,img/object-9_120-levels_1D/object9F0Level69F1Level40.png,img/object-9_120-levels_1D/object9F0Level53F1Level40.png,img/object-9_120-levels_1D/object9F0Level85F1Level40.png,0,0,1305.0,q,pre_exposure,23,60390,2,,,70,54,86,16,-16,-32,16,16,32,70_54_86,54,86,16,-16,-32,16,16,32,70_54_86,16_-16_-32,16_16_32,2,6,6,0,query_middle,across_convexity,54.0,ref_lowdim,1,0.0,1,nan,nan,,across_density_regions,70_54_86,nan
sub_59,1,dense_right,img/object-9_120-levels_1D/object9F0Level101F1Level40.png,img/object-9_120-levels_1D/object9F0Level109F1Level40.png,img/object-9_120-levels_1D/object9F0Level85F1Level40.png,0,0,1166.0,q,pre_exposure,24,62920,2,True,q,102,110,86,-8,16,24,8,16,24,102_110_86,86,110,16,-8,-24,16,8,24,102_86_110,16_-8_-24,8_16_24,2,6,11,8,query_middle,convex,110.0,ref_highdim,0,1.0,2,ref_highdim,ref_left,1.0,dense_region,102_86_110,ref_towards_dense
sub_59,1,dense_right,img/object-9_120-levels_1D/object9F0Level53F1Level40.png,img/object-9_120-levels_1D/object9F0Level69F1Level40.png,img/object-9_120-levels_1D/object9F0Level29F1Level40.png,0,0,1550.0,p,pre_exposure,25,65451,2,False,q,54,70,30,-16,24,40,16,24,40,54_70_30,30,70,24,-16,-40,24,16,40,54_30_70,24_-16_-40,16_24_40,2,6,12,8,query_middle,concave,30.0,ref_lowdim,1,0.0,1,ref_highdim,ref_left,0.0,sparse_region,54_30_70,ref_towards_dense
sub_59,1,dense_right,img/object-9_120-levels_1D/object9F0Level101F1Level40.png,img/object-9_120-levels_1D/object9F0Level109F1Level40.png,img/object-9_120-levels_1D/object9F0Level93F1Level40.png,0,0,1192.0,q,pre_exposure,26,67962,2,,,102,110,94,-8,8,16,8,8,16,102_110_94,94,110,8,-8,-16,8,8,16,102_94_110,8_-8_-16,8_8_16,2,6,6,0,query_middle,convex,110.0,ref_highdim,0,1.0,2,nan,nan,,dense_region,102_94_110,nan
sub_59,1,dense_right,img/object-9_120-levels_1D/object9F0Level69F1Level40.png,img/object-9_120-levels_1D/object9F0Level85F1Level40.png,img/object-9_120-levels_1D/object9F0Level61F1Level40.png,0,0,1086.0,p,pre_exposure,27,70478,2,True,p,70,86,62,-16,8,24,16,8,24,70_86_62,62,86,8,-16,-24,8,16,24,70_62_86,8_-16_-24,8_16_24,2,6,12,8,query_middle,across_convexity,62.0,ref_lowdim,1,0.0,1,ref_lowdim,ref_right,1.0,across_density_regions,70_62_86,ref_towards_sparse
sub_59,1,dense_right,img/object-9_120-levels_1D/object9F0Level37F1Level40.png,img/object-9_120-levels_1D/object9F0Level29F1Level40.png,img/object-9_120-levels_1D/object9F0Level61F1Level40.png,0,0,,,post_exposure,1,6809,1,False,q,38,30,62,8,-24,-32,8,24,32,38_30_62,30,62,8,-24,-32,8,24,32,38_30_62,8_-24_-32,8_24_32,1,1,1,16,query_middle,concave,,nan,nan,,0,ref_lowdim,ref_left,0.0,sparse_region,38_30_62,ref_towards_sparse
sub_59,1,dense_right,img/object-9_120-levels_1D/object9F0Level53F1Level40.png,img/object-9_120-levels_1D/object9F0Level29F1Level40.png,img/object-9_120-levels_1D/object9F0Level61F1Level40.png,0,0,1733.0,p,post_exposure,2,9405,1,True,p,54,30,62,24,-8,-32,24,8,32,54_30_62,30,62,24,-8,-32,24,8,32,54_30_62,24_-8_-32,8_24_32,1,1,2,16,query_middle,concave,62.0,ref_highdim,0,1.0,2,ref_highdim,ref_right,1.0,sparse_region,54_30_62,ref_towards_dense
sub_59,1,dense_right,img/object-9_120-levels_1D/object9F0Level69F1Level40.png,img/object-9_120-levels_1D/object9F0Level61F1Level40.png,img/object-9_120-levels_1D/object9F0Level93F1Level40.png,0,0,973.0,q,post_exposure,3,12045,1,True,q,70,62,94,8,-24,-32,8,24,32,70_62_94,62,94,8,-24,-32,8,24,32,70_62_94,8_-24_-32,8_24_32,1,2,3,16,query_middle,across_convexity,62.0,ref_lowdim,1,0.0,1,ref_lowdim,ref_left,1.0,across_density_regions,70_62_94,ref_towards_sparse
sub_59,1,dense_right,img/object-9_120-levels_1D/object9F0Level93F1Level40.png,img/object-9_120-levels_1D/object9F0Level77F1Level40.png,img/object-9_120-levels_1D/object9F0Level109F1Level40.png,0,0,890.0,p,post_exposure,4,14778,1,,,94,78,110,16,-16,-32,16,16,32,94_78_110,78,110,16,-16,-32,16,16,32,94_78_110,16_-16_-32,16_16_32,1,1,1,0,query_middle,convex,110.0,ref_highdim,0,1.0,2,nan,nan,,dense_region,94_78_110,nan
sub_59,1,dense_right,img/object-9_120-levels_1D/object9F0Level69F1Level40.png,img/object-9_120-levels_1D/object9F0Level61F1Level40.png,img/object-9_120-levels_1D/object9F0Level85F1Level40.png,0,0,680.0,q,post_exposure,5,17388,1,True,q,70,62,86,8,-16,-24,8,16,24,70_62_86,62,86,8,-16,-24,8,16,24,70_62_86,8_-16_-24,8_16_24,1,1,1,8,query_middle,across_convexity,62.0,ref_lowdim,1,0.0,1,ref_lowdim,ref_left,1.0,across_density_regions,70_62_86,ref_towards_sparse
sub_59,1,dense_right,img/object-9_120-levels_1D/object9F0Level85F1Level40.png,img/object-9_120-levels_1D/object9F0Level109F1Level40.png,img/object-9_120-levels_1D/object9F0Level69F1Level40.png,0,0,1054.0,p,post_exposure,6,19919,1,True,p,86,110,70,-24,16,40,24,16,40,86_110_70,70,110,16,-24,-40,16,24,40,86_70_110,16_-24_-40,16_24_40,1,1,1,8,query_middle,convex,70.0,ref_lowdim,1,0.0,1,ref_lowdim,ref_right,1.0,dense_region,86_70_110,ref_towards_sparse
sub_59,1,dense_right,img/object-9_120-levels_1D/object9F0Level69F1Level40.png,img/object-9_120-levels_1D/object9F0Level53F1Level40.png,img/object-9_120-levels_1D/object9F0Level85F1Level40.png,0,0,1470.0,q,post_exposure,7,22441,1,,,70,54,86,16,-16,-32,16,16,32,70_54_86,54,86,16,-16,-32,16,16,32,70_54_86,16_-16_-32,16_16_32,1,2,2,0,query_middle,across_convexity,54.0,ref_lowdim,1,0.0,1,nan,nan,,across_density_regions,70_54_86,nan
sub_59,1,dense_right,img/object-9_120-levels_1D/object9F0Level37F1Level40.png,img/object-9_120-levels_1D/object9F0Level61F1Level40.png,img/object-9_120-levels_1D/object9F0Level29F1Level40.png,0,0,796.0,p,post_exposure,8,24973,1,True,p,38,62,30,-24,8,32,24,8,32,38_62_30,30,62,8,-24,-32,8,24,32,38_30_62,8_-24_-32,8_24_32,2,3,4,16,query_middle,concave,30.0,ref_lowdim,1,0.0,1,ref_lowdim,ref_right,1.0,sparse_region,38_30_62,ref_towards_sparse
sub_59,1,dense_right,img/object-9_120-levels_1D/object9F0Level101F1Level40.png,img/object-9_120-levels_1D/object9F0Level109F1Level40.png,img/object-9_120-levels_1D/object9F0Level93F1Level40.png,0,0,953.0,q,post_exposure,9,27597,1,,,102,110,94,-8,8,16,8,8,16,102_110_94,94,110,8,-8,-16,8,8,16,102_94_110,8_-8_-16,8_8_16,1,1,1,0,query_middle,convex,110.0,ref_highdim,0,1.0,2,nan,nan,,dense_region,102_94_110,nan
sub_59,1,dense_right,img/object-9_120-levels_1D/object9F0Level69F1Level40.png,img/object-9_120-levels_1D/object9F0Level93F1Level40.png,img/object-9_120-levels_1D/object9F0Level45F1Level40.png,0,0,1543.0,p,post_exposure,10,30192,1,,,70,94,46,-24,24,48,24,24,48,70_94_46,46,94,24,-24,-48,24,24,48,70_46_94,24_-24_-48,24_24_48,1,1,1,0,query_middle,across_convexity,46.0,ref_lowdim,1,0.0,1,nan,nan,,across_density_regions,70_46_94,nan
sub_59,1,dense_right,img/object-9_120-levels_1D/object9F0Level93F1Level40.png,img/object-9_120-levels_1D/object9F0Level109F1Level40.png,img/object-9_120-levels_1D/object9F0Level69F1Level40.png,0,0,1360.0,q,post_exposure,11,32722,1,True,q,94,110,70,-16,24,40,16,24,40,94_110_70,70,110,24,-16,-40,24,16,40,94_70_110,24_-16_-40,16_24_40,1,1,2,8,query_middle,convex,110.0,ref_highdim,0,1.0,2,ref_highdim,ref_left,1.0,dense_region,94_70_110,ref_towards_dense
sub_59,1,dense_right,img/object-9_120-levels_1D/object9F0Level37F1Level40.png,img/object-9_120-levels_1D/object9F0Level45F1Level40.png,img/object-9_120-levels_1D/object9F0Level29F1Level40.png,0,0,1245.0,p,post_exposure,12,35253,1,,,38,46,30,-8,8,16,8,8,16,38_46_30,30,46,8,-8,-16,8,8,16,38_30_46,8_-8_-16,8_8_16,1,2,2,0,query_middle,concave,30.0,ref_lowdim,1,0.0,1,nan,nan,,sparse_region,38_30_46,nan
sub_59,1,dense_right,img/object-9_120-levels_1D/object9F0Level53F1Level40.png,img/object-9_120-levels_1D/object9F0Level29F1Level40.png,img/object-9_120-levels_1D/object9F0Level77F1Level40.png,0,0,1033.0,q,post_exposure,13,37785,1,,,54,30,78,24,-24,-48,24,24,48,54_30_78,30,78,24,-24,-48,24,24,48,54_30_78,24_-24_-48,24_24_48,1,2,2,0,query_middle,concave,30.0,ref_lowdim,1,0.0,1,nan,nan,,sparse_region,54_30_78,nan
sub_59,1,dense_right,img/object-9_120-levels_1D/object9F0Level69F1Level40.png,img/object-9_120-levels_1D/object9F0Level77F1Level40.png,img/object-9_120-levels_1D/object9F0Level61F1Level40.png,0,0,933.0,q,post_exposure,14,40316,1,,,70,78,62,-8,8,16,8,8,16,70_78_62,62,78,8,-8,-16,8,8,16,70_62_78,8_-8_-16,8_8_16,1,3,3,0,query_middle,across_convexity,78.0,ref_highdim,0,1.0,2,nan,nan,,across_density_regions,70_62_78,nan
sub_59,1,dense_right,img/object-9_120-levels_1D/object9F0Level101F1Level40.png,img/object-9_120-levels_1D/object9F0Level85F1Level40.png,img/object-9_120-levels_1D/object9F0Level109F1Level40.png,0,0,1106.0,p,post_exposure,15,42847,1,True,p,102,86,110,16,-8,-24,16,8,24,102_86_110,86,110,16,-8,-24,16,8,24,102_86_110,16_-8_-24,8_16_24,1,1,2,8,query_middle,convex,110.0,ref_highdim,0,1.0,2,ref_highdim,ref_right,1.0,dense_region,102_86_110,ref_towards_dense
sub_59,1,dense_right,img/object-9_120-levels_1D/object9F0Level85F1Level40.png,img/object-9_120-levels_1D/object9F0Level69F1Level40.png,img/object-9_120-levels_1D/object9F0Level109F1Level40.png,0,0,1142.0,p,post_exposure,16,45378,1,False,q,86,70,110,16,-24,-40,16,24,40,86_70_110,70,110,16,-24,-40,16,24,40,86_70_110,16_-24_-40,16_24_40,2,2,3,8,query_middle,convex,110.0,ref_highdim,0,1.0,2,ref_lowdim,ref_left,0.0,dense_region,86_70_110,ref_towards_sparse
sub_59,1,dense_right,img/object-9_120-levels_1D/object9F0Level69F1Level40.png,img/object-9_120-levels_1D/object9F0Level45F1Level40.png,img/object-9_120-levels_1D/object9F0Level77F1Level40.png,0,0,984.0,p,post_exposure,17,47910,1,True,p,70,46,78,24,-8,-32,24,8,32,70_46_78,46,78,24,-8,-32,24,8,32,70_46_78,24_-8_-32,8_24_32,1,2,5,16,query_middle,across_convexity,78.0,ref_highdim,0,1.0,2,ref_highdim,ref_right,1.0,across_density_regions,70_46_78,ref_towards_dense
sub_59,1,dense_right,img/object-9_120-levels_1D/object9F0Level85F1Level40.png,img/object-9_120-levels_1D/object9F0Level109F1Level40.png,img/object-9_120-levels_1D/object9F0Level77F1Level40.png,0,0,973.0,p,post_exposure,18,50442,1,True,p,86,110,78,-24,8,32,24,8,32,86_110_78,78,110,8,-24,-32,8,24,32,86_78_110,8_-24_-32,8_24_32,1,4,6,16,query_middle,convex,78.0,ref_lowdim,1,0.0,1,ref_lowdim,ref_right,1.0,dense_region,86_78_110,ref_towards_sparse
sub_59,1,dense_right,img/object-9_120-levels_1D/object9F0Level37F1Level40.png,img/object-9_120-levels_1D/object9F0Level29F1Level40.png,img/object-9_120-levels_1D/object9F0Level45F1Level40.png,0,0,1315.0,q,post_exposure,19,52973,1,,,38,30,46,8,-8,-16,8,8,16,38_30_46,30,46,8,-8,-16,8,8,16,38_30_46,8_-8_-16,8_8_16,2,4,4,0,query_middle,concave,30.0,ref_lowdim,1,0.0,1,nan,nan,,sparse_region,38_30_46,nan
sub_59,1,dense_right,img/object-9_120-levels_1D/object9F0Level69F1Level40.png,img/object-9_120-levels_1D/object9F0Level77F1Level40.png,img/object-9_120-levels_1D/object9F0Level53F1Level40.png,0,0,1824.0,p,post_exposure,20,55504,1,False,q,70,78,54,-8,16,24,8,16,24,70_78_54,54,78,16,-8,-24,16,8,24,70_54_78,16_-8_-24,8_16_24,1,2,3,8,query_middle,across_convexity,54.0,ref_lowdim,1,0.0,1,ref_highdim,ref_left,0.0,across_density_regions,70_54_78,ref_towards_dense
