prolific_id,experiment,counterbalancing,query_stimulus,ref_left_stimulus,ref_right_stimulus,ref_left_y_offset,ref_right_y_offset,rt,response,trial_stage,trial_index,time_elapsed,session,correct,correct_response,query_item,ref_left,ref_right,dist_query_ref_left,dist_query_ref_right,dist_ref_left_ref_right,abs_dist_query_ref_left,abs_dist_query_ref_right,abs_dist_ref_left_ref_right,triplet_left_right_name,ref_lowdim,ref_highdim,dist_query_ref_lowdim,dist_query_ref_highdim,dist_ref_lowdim_ref_highdim,dist_abs_query_ref_lowdim,dist_abs_query_ref_highdim,dist_abs_ref_lowdim_ref_highdim,triplet_unique_name,template_distances,template_abs_distances,triplet_rep,template_distances_rep,template_abs_distances_rep,triplet_easiness,query_position,curve_type,chosen_ref_value,chosen_ref_lowdim_highdim,chose_towards_sparse,chose_towards_highdim,chosen_ref_numeric,correct_ref_lowdim_highdim,correct_ref_left_right,correct_numeric,triplet_location,density_relative_triplet_name,correct_ref_towards_dense_sparse
sub_58,1,dense_left,img/object-9_120-levels_1D/object9F0Level61F1Level40.png,img/object-9_120-levels_1D/object9F0Level29F1Level40.png,img/object-9_120-levels_1D/object9F0Level93F1Level40.png,0,0,1277.2999999998137,p,practice,1,3072,1,,,62,30,94,32,-32,-64,32,32,64,62_30_94,30,94,32,-32,-64,32,32,64,62_30_94,32_-32_-64,32_32_64,1,1,1,0,query_middle,concave,94.0,ref_highdim,1,1.0,2,nan,nan,,dense_region,78_46_110,nan
sub_58,1,dense_left,img/object-9_120-levels_1D/object9F0Level101F1Level40.png,img/object-9_120-levels_1D/object9F0Level37F1Level40.png,img/object-9_120-levels_1D/object9F0Level109F1Level40.png,0,0,1249.300000000745,p,practice,2,5591,1,True,p,102,38,110,64,-8,-72,64,8,72,102_38_110,38,110,64,-8,-72,64,8,72,102_38_110,64_-8_-72,8_64_72,1,1,1,56,query_middle,convex,110.0,ref_highdim,1,1.0,2,ref_highdim,ref_right,1.0,sparse_region,38_30_102,ref_towards_sparse
sub_58,1,dense_left,img/object-9_120-levels_1D/object9F0Level77F1Level40.png,img/object-9_120-levels_1D/object9F0Level109F1Level40.png,img/object-9_120-levels_1D/object9F0Level37F1Level40.png,0,0,1231.300000000745,q,practice,3,8116,1,True,q,78,110,38,-32,40,72,32,40,72,78_110_38,38,110,40,-32,-72,40,32,72,78_38_110,40_-32_-72,32_40_72,1,1,1,8,query_middle,convex,110.0,ref_highdim,1,1.0,2,ref_highdim,ref_left,1.0,sparse_region,62_30_102,ref_towards_sparse
sub_58,1,dense_left,img/object-9_120-levels_1D/object9F0Level101F1Level40.png,img/object-9_120-levels_1D/object9F0Level109F1Level40.png,img/object-9_120-levels_1D/object9F0Level29F1Level40.png,0,0,707.2999999998137,q,practice,4,10637,1,True,q,102,110,30,-8,72,80,8,72,80,102_110_30,30,110,72,-8,-80,72,8,80,102_30_110,72_-8_-80,8_72_80,1,1,1,64,query_middle,convex,110.0,ref_highdim,1,1.0,2,ref_highdim,ref_left,1.0,sparse_region,38_30_110,ref_towards_sparse
sub_58,1,dense_left,img/object-9_120-levels_1D/object9F0Level93F1Level40.png,img/object-9_120-levels_1D/object9F0Level101F1Level40.png,img/object-9_120-levels_1D/object9F0Level37F1Level40.png,0,0,914.2999999998137,q,practice,5,13157,1,True,q,94,102,38,-8,56,64,8,56,64,94_102_38,38,102,56,-8,-64,56,8,64,94_38_102,56_-8_-64,8_56_64,1,1,1,48,query_middle,convex,102.0,ref_highdim,1,1.0,2,ref_highdim,ref_left,1.0,sparse_region,46_38_102,ref_towards_sparse
sub_58,1,dense_left,img/object-9_120-levels_1D/object9F0Level37F1Level40.png,img/object-9_120-levels_1D/object9F0Level29F1Level40.png,img/object-9_120-levels_1D/object9F0Level45F1Level40.png,0,0,1515.7000000001863,q,practice,6,15676,1,,,38,30,46,8,-8,-16,8,8,16,38_30_46,30,46,8,-8,-16,8,8,16,38_30_46,8_-8_-16,8_8_16,1,1,1,0,query_middle,concave,30.0,ref_lowdim,0,0.0,1,nan,nan,,dense_region,102_94_110,nan
sub_58,1,dense_left,img/object-9_120-levels_1D/object9F0Level101F1Level40.png,img/object-9_120-levels_1D/object9F0Level85F1Level40.png,img/object-9_120-levels_1D/object9F0Level109F1Level40.png,0,0,1596.0,p,practice,7,18206,1,True,p,102,86,110,16,-8,-24,16,8,24,102_86_110,86,110,16,-8,-24,16,8,24,102_86_110,16_-8_-24,8_16_24,1,1,1,8,query_middle,convex,110.0,ref_highdim,1,1.0,2,ref_highdim,ref_right,1.0,sparse_region,38_30_54,ref_towards_sparse
sub_58,1,dense_left,img/object-9_120-levels_1D/object9F0Level37F1Level40.png,img/object-9_120-levels_1D/object9F0Level53F1Level40.png,img/object-9_120-levels_1D/object9F0Level29F1Level40.png,0,0,1000.1000000005588,p,practice,8,20736,1,True,p,38,54,30,-16,8,24,16,8,24,38_54_30,30,54,8,-16,-24,8,16,24,38_30_54,8_-16_-24,8_16_24,1,1,2,8,query_middle,concave,30.0,ref_lowdim,0,0.0,1,ref_lowdim,ref_right,1.0,dense_region,102_86_110,ref_towards_dense
sub_58,1,dense_left,img/object-9_120-levels_1D/object9F0Level101F1Level40.png,img/object-9_120-levels_1D/object9F0Level37F1Level40.png,img/object-9_120-levels_1D/object9F0Level109F1Level40.png,0,0,1096.5999999996275,p,practice,9,23259,1,True,p,102,38,110,64,-8,-72,64,8,72,102_38_110,38,110,64,-8,-72,64,8,72,102_38_110,64_-8_-72,8_64_72,2,2,2,56,query_middle,convex,110.0,ref_highdim,1,1.0,2,ref_highdim,ref_right,1.0,sparse_region,38_30_102,ref_towards_sparse
sub_58,1,dense_left,img/object-9_120-levels_1D/object9F0Level45F1Level40.png,img/object-9_120-levels_1D/object9F0Level29F1Level40.png,img/object-9_120-levels_1D/object9F0Level101F1Level40.png,0,0,813.9000000003725,q,practice,10,25786,1,True,q,46,30,102,16,-56,-72,16,56,72,46_30_102,30,102,16,-56,-72,16,56,72,46_30_102,16_-56_-72,16_56_72,1,1,1,40,query_middle,concave,30.0,ref_lowdim,0,0.0,1,ref_lowdim,ref_left,1.0,dense_region,94_38_110,ref_towards_dense
sub_58,1,dense_left,img/object-9_120-levels_1D/object9F0Level101F1Level40.png,img/object-9_120-levels_1D/object9F0Level109F1Level40.png,img/object-9_120-levels_1D/object9F0Level37F1Level40.png,0,0,745.7000000001863,q,practice,11,28326,1,True,q,102,110,38,-8,64,72,8,64,72,102_110_38,38,110,64,-8,-72,64,8,72,102_38_110,64_-8_-72,8_64_72,3,3,3,56,query_middle,convex,110.0,ref_highdim,1,1.0,2,ref_highdim,ref_left,1.0,sparse_region,38_30_102,ref_towards_sparse
sub_58,1,dense_left,img/object-9_120-levels_1D/object9F0Level61F1Level40.png,img/object-9_120-levels_1D/object9F0Level93F1Level40.png,img/object-9_120-levels_1D/object9F0Level29F1Level40.png,0,0,1976.0,p,practice,12,30831,1,,,62,94,30,-32,32,64,32,32,64,62_94_30,30,94,32,-32,-64,32,32,64,62_30_94,32_-32_-64,32_32_64,2,2,2,0,query_middle,concave,30.0,ref_lowdim,0,0.0,1,nan,nan,,dense_region,78_46_110,nan
sub_58,1,dense_left,img/object-9_120-levels_1D/object9F0Level101F1Level40.png,img/object-9_120-levels_1D/object9F0Level109F1Level40.png,img/object-9_120-levels_1D/object9F0Level85F1Level40.png,0,0,1372.2999999998137,q,practice,13,33334,1,True,q,102,110,86,-8,16,24,8,16,24,102_110_86,86,110,16,-8,-24,16,8,24,102_86_110,16_-8_-24,8_16_24,2,2,3,8,query_middle,convex,110.0,ref_highdim,1,1.0,2,ref_highdim,ref_left,1.0,sparse_region,38_30_54,ref_towards_sparse
sub_58,1,dense_left,img/object-9_120-levels_1D/object9F0Level77F1Level40.png,img/object-9_120-levels_1D/object9F0Level37F1Level40.png,img/object-9_120-levels_1D/object9F0Level109F1Level40.png,0,0,1318.9000000003725,p,practice,14,35837,1,True,p,78,38,110,40,-32,-72,40,32,72,78_38_110,38,110,40,-32,-72,40,32,72,78_38_110,40_-32_-72,32_40_72,2,2,2,8,query_middle,convex,110.0,ref_highdim,1,1.0,2,ref_highdim,ref_right,1.0,sparse_region,62_30_102,ref_towards_sparse
sub_58,1,dense_left,img/object-9_120-levels_1D/object9F0Level45F1Level40.png,img/object-9_120-levels_1D/object9F0Level101F1Level40.png,img/object-9_120-levels_1D/object9F0Level29F1Level40.png,0,0,765.0999999996275,p,practice,15,38341,1,True,p,46,102,30,-56,16,72,56,16,72,46_102_30,30,102,16,-56,-72,16,56,72,46_30_102,16_-56_-72,16_56_72,2,2,2,40,query_middle,concave,30.0,ref_lowdim,0,0.0,1,ref_lowdim,ref_right,1.0,dense_region,94_38_110,ref_towards_dense
sub_58,1,dense_left,img/object-9_120-levels_1D/object9F0Level101F1Level40.png,img/object-9_120-levels_1D/object9F0Level109F1Level40.png,img/object-9_120-levels_1D/object9F0Level37F1Level40.png,0,0,712.0999999996275,q,practice,16,40843,1,True,q,102,110,38,-8,64,72,8,64,72,102_110_38,38,110,64,-8,-72,64,8,72,102_38_110,64_-8_-72,8_64_72,4,4,4,56,query_middle,convex,110.0,ref_highdim,1,1.0,2,ref_highdim,ref_left,1.0,sparse_region,38_30_102,ref_towards_sparse
sub_58,1,dense_left,img/object-9_120-levels_1D/object9F0Level93F1Level40.png,img/object-9_120-levels_1D/object9F0Level37F1Level40.png,img/object-9_120-levels_1D/object9F0Level101F1Level40.png,0,0,659.2999999998137,p,practice,17,43346,1,True,p,94,38,102,56,-8,-64,56,8,64,94_38_102,38,102,56,-8,-64,56,8,64,94_38_102,56_-8_-64,8_56_64,2,2,2,48,query_middle,convex,102.0,ref_highdim,1,1.0,2,ref_highdim,ref_right,1.0,sparse_region,46_38_102,ref_towards_sparse
sub_58,1,dense_left,img/object-9_120-levels_1D/object9F0Level37F1Level40.png,img/object-9_120-levels_1D/object9F0Level45F1Level40.png,img/object-9_120-levels_1D/object9F0Level29F1Level40.png,0,0,1755.7999999998137,p,practice,18,45849,1,,,38,46,30,-8,8,16,8,8,16,38_46_30,30,46,8,-8,-16,8,8,16,38_30_46,8_-8_-16,8_8_16,2,2,2,0,query_middle,concave,30.0,ref_lowdim,0,0.0,1,nan,nan,,dense_region,102_94_110,nan
sub_58,1,dense_left,img/object-9_120-levels_1D/object9F0Level101F1Level40.png,img/object-9_120-levels_1D/object9F0Level29F1Level40.png,img/object-9_120-levels_1D/object9F0Level109F1Level40.png,0,0,673.2000000001863,p,practice,19,48352,1,True,p,102,30,110,72,-8,-80,72,8,80,102_30_110,30,110,72,-8,-80,72,8,80,102_30_110,72_-8_-80,8_72_80,2,2,2,64,query_middle,convex,110.0,ref_highdim,1,1.0,2,ref_highdim,ref_right,1.0,sparse_region,38_30_110,ref_towards_sparse
sub_58,1,dense_left,img/object-9_120-levels_1D/object9F0Level37F1Level40.png,img/object-9_120-levels_1D/object9F0Level29F1Level40.png,img/object-9_120-levels_1D/object9F0Level53F1Level40.png,0,0,880.4000000003725,q,practice,20,50866,1,True,q,38,30,54,8,-16,-24,8,16,24,38_30_54,30,54,8,-16,-24,8,16,24,38_30_54,8_-16_-24,8_16_24,2,2,4,8,query_middle,concave,30.0,ref_lowdim,0,0.0,1,ref_lowdim,ref_left,1.0,dense_region,102_86_110,ref_towards_dense
sub_58,1,dense_left,img/object-9_120-levels_1D/object9F0Level69F1Level40.png,img/object-9_120-levels_1D/object9F0Level53F1Level40.png,img/object-9_120-levels_1D/object9F0Level93F1Level40.png,0,0,1647.5,p,pre_exposure,1,2995,1,False,q,70,54,94,16,-24,-40,16,24,40,70_54_94,54,94,16,-24,-40,16,24,40,70_54_94,16_-24_-40,16_24_40,1,1,1,8,query_middle,across_convexity,94.0,ref_highdim,1,1.0,2,ref_lowdim,ref_left,0.0,across_density_regions,70_46_86,ref_towards_dense
sub_58,1,dense_left,img/object-9_120-levels_1D/object9F0Level101F1Level40.png,img/object-9_120-levels_1D/object9F0Level77F1Level40.png,img/object-9_120-levels_1D/object9F0Level109F1Level40.png,0,0,952.7000000001863,p,pre_exposure,2,5505,1,True,p,102,78,110,24,-8,-32,24,8,32,102_78_110,78,110,24,-8,-32,24,8,32,102_78_110,24_-8_-32,8_24_32,1,1,1,16,query_middle,convex,110.0,ref_highdim,1,1.0,2,ref_highdim,ref_right,1.0,sparse_region,38_30_62,ref_towards_sparse
sub_58,1,dense_left,img/object-9_120-levels_1D/object9F0Level69F1Level40.png,img/object-9_120-levels_1D/object9F0Level93F1Level40.png,img/object-9_120-levels_1D/object9F0Level45F1Level40.png,0,0,1352.5,p,pre_exposure,3,8045,1,,,70,94,46,-24,24,48,24,24,48,70_94_46,46,94,24,-24,-48,24,24,48,70_46_94,24_-24_-48,24_24_48,1,1,1,0,query_middle,across_convexity,46.0,ref_lowdim,0,0.0,1,nan,nan,,across_density_regions,70_46_94,nan
sub_58,1,dense_left,img/object-9_120-levels_1D/object9F0Level93F1Level40.png,img/object-9_120-levels_1D/object9F0Level109F1Level40.png,img/object-9_120-levels_1D/object9F0Level69F1Level40.png,0,0,772.5,q,pre_exposure,4,10565,1,True,q,94,110,70,-16,24,40,16,24,40,94_110_70,70,110,24,-16,-40,24,16,40,94_70_110,24_-16_-40,16_24_40,1,1,2,8,query_middle,convex,110.0,ref_highdim,1,1.0,2,ref_highdim,ref_left,1.0,sparse_region,46_30_70,ref_towards_sparse
sub_58,1,dense_left,img/object-9_120-levels_1D/object9F0Level69F1Level40.png,img/object-9_120-levels_1D/object9F0Level77F1Level40.png,img/object-9_120-levels_1D/object9F0Level45F1Level40.png,0,0,741.2000000001863,q,pre_exposure,5,13105,1,True,q,70,78,46,-8,24,32,8,24,32,70_78_46,46,78,24,-8,-32,24,8,32,70_46_78,24_-8_-32,8_24_32,1,2,2,16,query_middle,across_convexity,78.0,ref_highdim,1,1.0,2,ref_highdim,ref_left,1.0,across_density_regions,70_62_94,ref_towards_sparse
sub_58,1,dense_left,img/object-9_120-levels_1D/object9F0Level45F1Level40.png,img/object-9_120-levels_1D/object9F0Level29F1Level40.png,img/object-9_120-levels_1D/object9F0Level69F1Level40.png,0,0,1072.7999999998137,q,pre_exposure,6,15635,1,True,q,46,30,70,16,-24,-40,16,24,40,46_30_70,30,70,16,-24,-40,16,24,40,46_30_70,16_-24_-40,16_24_40,1,2,3,8,query_middle,concave,30.0,ref_lowdim,0,0.0,1,ref_lowdim,ref_left,1.0,dense_region,94_70_110,ref_towards_dense
sub_58,1,dense_left,img/object-9_120-levels_1D/object9F0Level69F1Level40.png,img/object-9_120-levels_1D/object9F0Level53F1Level40.png,img/object-9_120-levels_1D/object9F0Level77F1Level40.png,0,0,1862.0,p,pre_exposure,7,18155,1,True,p,70,54,78,16,-8,-24,16,8,24,70_54_78,54,78,16,-8,-24,16,8,24,70_54_78,16_-8_-24,8_16_24,1,1,1,8,query_middle,across_convexity,78.0,ref_highdim,1,1.0,2,ref_highdim,ref_right,1.0,across_density_regions,70_62_86,ref_towards_sparse
sub_58,1,dense_left,img/object-9_120-levels_1D/object9F0Level45F1Level40.png,img/object-9_120-levels_1D/object9F0Level53F1Level40.png,img/object-9_120-levels_1D/object9F0Level29F1Level40.png,0,0,1052.4000000003725,q,pre_exposure,8,20685,1,True,q,46,54,30,-8,16,24,8,16,24,46_54_30,30,54,16,-8,-24,16,8,24,46_30_54,16_-8_-24,8_16_24,1,2,2,8,query_middle,concave,54.0,ref_highdim,1,1.0,2,ref_highdim,ref_left,1.0,dense_region,94_86_110,ref_towards_sparse
sub_58,1,dense_left,img/object-9_120-levels_1D/object9F0Level93F1Level40.png,img/object-9_120-levels_1D/object9F0Level109F1Level40.png,img/object-9_120-levels_1D/object9F0Level77F1Level40.png,0,0,1003.2000000001863,q,pre_exposure,9,23199,1,,,94,110,78,-16,16,32,16,16,32,94_110_78,78,110,16,-16,-32,16,16,32,94_78_110,16_-16_-32,16_16_32,1,1,1,0,query_middle,convex,110.0,ref_highdim,1,1.0,2,nan,nan,,sparse_region,46_30_62,nan
sub_58,1,dense_left,img/object-9_120-levels_1D/object9F0Level101F1Level40.png,img/object-9_120-levels_1D/object9F0Level109F1Level40.png,img/object-9_120-levels_1D/object9F0Level93F1Level40.png,0,0,1388.7999999998137,q,pre_exposure,10,25725,1,,,102,110,94,-8,8,16,8,8,16,102_110_94,94,110,8,-8,-16,8,8,16,102_94_110,8_-8_-16,8_8_16,1,1,1,0,query_middle,convex,110.0,ref_highdim,1,1.0,2,nan,nan,,sparse_region,38_30_46,nan
sub_58,1,dense_left,img/object-9_120-levels_1D/object9F0Level53F1Level40.png,img/object-9_120-levels_1D/object9F0Level29F1Level40.png,img/object-9_120-levels_1D/object9F0Level77F1Level40.png,0,0,1022.0,q,pre_exposure,11,28241,1,,,54,30,78,24,-24,-48,24,24,48,54_30_78,30,78,24,-24,-48,24,24,48,54_30_78,24_-24_-48,24_24_48,1,2,2,0,query_middle,concave,30.0,ref_lowdim,0,0.0,1,nan,nan,,dense_region,86_62_110,nan
sub_58,1,dense_left,img/object-9_120-levels_1D/object9F0Level69F1Level40.png,img/object-9_120-levels_1D/object9F0Level45F1Level40.png,img/object-9_120-levels_1D/object9F0Level77F1Level40.png,0,0,1456.7999999998137,p,pre_exposure,12,30744,1,True,p,70,46,78,24,-8,-32,24,8,32,70_46_78,46,78,24,-8,-32,24,8,32,70_46_78,24_-8_-32,8_24_32,2,3,3,16,query_middle,across_convexity,78.0,ref_highdim,1,1.0,2,ref_highdim,ref_right,1.0,across_density_regions,70_62_94,ref_towards_sparse
sub_58,1,dense_left,img/object-9_120-levels_1D/object9F0Level93F1Level40.png,img/object-9_120-levels_1D/object9F0Level77F1Level40.png,img/object-9_120-levels_1D/object9F0Level109F1Level40.png,0,0,1334.0,p,pre_exposure,13,33248,1,,,94,78,110,16,-16,-32,16,16,32,94_78_110,78,110,16,-16,-32,16,16,32,94_78_110,16_-16_-32,16_16_32,2,2,2,0,query_middle,convex,110.0,ref_highdim,1,1.0,2,nan,nan,,sparse_region,46_30_62,nan
sub_58,1,dense_left,img/object-9_120-levels_1D/object9F0Level69F1Level40.png,img/object-9_120-levels_1D/object9F0Level61F1Level40.png,img/object-9_120-levels_1D/object9F0Level93F1Level40.png,0,0,1520.2999999998137,q,pre_exposure,14,35751,1,True,q,70,62,94,8,-24,-32,8,24,32,70_62_94,62,94,8,-24,-32,8,24,32,70_62_94,8_-24_-32,8_24_32,1,1,4,16,query_middle,across_convexity,62.0,ref_lowdim,0,0.0,1,ref_lowdim,ref_left,1.0,across_density_regions,70_46_78,ref_towards_dense
sub_58,1,dense_left,img/object-9_120-levels_1D/object9F0Level53F1Level40.png,img/object-9_120-levels_1D/object9F0Level69F1Level40.png,img/object-9_120-levels_1D/object9F0Level29F1Level40.png,0,0,2016.5,p,pre_exposure,15,38271,1,False,q,54,70,30,-16,24,40,16,24,40,54_70_30,30,70,24,-16,-40,24,16,40,54_30_70,24_-16_-40,16_24_40,1,2,4,8,query_middle,concave,30.0,ref_lowdim,0,0.0,1,ref_highdim,ref_left,0.0,dense_region,86_70_110,ref_towards_sparse
sub_58,1,dense_left,img/object-9_120-levels_1D/object9F0Level69F1Level40.png,img/object-9_120-levels_1D/object9F0Level85F1Level40.png,img/object-9_120-levels_1D/object9F0Level61F1Level40.png,0,0,1356.6000000005588,p,pre_exposure,16,40775,1,True,p,70,86,62,-16,8,24,16,8,24,70_86_62,62,86,8,-16,-24,8,16,24,70_62_86,8_-16_-24,8_16_24,1,1,3,8,query_middle,across_convexity,62.0,ref_lowdim,0,0.0,1,ref_lowdim,ref_right,1.0,across_density_regions,70_54_78,ref_towards_dense
sub_58,1,dense_left,img/object-9_120-levels_1D/object9F0Level85F1Level40.png,img/object-9_120-levels_1D/object9F0Level109F1Level40.png,img/object-9_120-levels_1D/object9F0Level69F1Level40.png,0,0,1295.1000000005588,q,pre_exposure,17,43278,1,False,p,86,110,70,-24,16,40,24,16,40,86_110_70,70,110,16,-24,-40,16,24,40,86_70_110,16_-24_-40,16_24_40,1,3,5,8,query_middle,convex,110.0,ref_highdim,1,1.0,2,ref_lowdim,ref_right,0.0,sparse_region,54_30_70,ref_towards_dense
sub_58,1,dense_left,img/object-9_120-levels_1D/object9F0Level69F1Level40.png,img/object-9_120-levels_1D/object9F0Level77F1Level40.png,img/object-9_120-levels_1D/object9F0Level53F1Level40.png,0,0,1230.7999999998137,q,pre_exposure,18,45791,1,True,q,70,78,54,-8,16,24,8,16,24,70_78_54,54,78,16,-8,-24,16,8,24,70_54_78,16_-8_-24,8_16_24,2,3,4,8,query_middle,across_convexity,78.0,ref_highdim,1,1.0,2,ref_highdim,ref_left,1.0,across_density_regions,70_62_86,ref_towards_sparse
sub_58,1,dense_left,img/object-9_120-levels_1D/object9F0Level53F1Level40.png,img/object-9_120-levels_1D/object9F0Level29F1Level40.png,img/object-9_120-levels_1D/object9F0Level61F1Level40.png,0,0,1768.8999999994412,p,pre_exposure,19,48294,1,True,p,54,30,62,24,-8,-32,24,8,32,54_30_62,30,62,24,-8,-32,24,8,32,54_30_62,24_-8_-32,8_24_32,1,4,5,16,query_middle,concave,62.0,ref_highdim,1,1.0,2,ref_highdim,ref_right,1.0,dense_region,86_78_110,ref_towards_sparse
sub_58,1,dense_left,img/object-9_120-levels_1D/object9F0Level85F1Level40.png,img/object-9_120-levels_1D/object9F0Level109F1Level40.png,img/object-9_120-levels_1D/object9F0Level77F1Level40.png,0,0,1484.7999999998137,p,pre_exposure,20,50799,1,True,p,86,110,78,-24,8,32,24,8,32,86_110_78,78,110,8,-24,-32,8,24,32,86_78_110,8_-24_-32,8_24_32,1,2,6,16,query_middle,convex,78.0,ref_lowdim,0,0.0,1,ref_lowdim,ref_right,1.0,sparse_region,54_30_62,ref_towards_dense
sub_58,1,dense_left,img/object-9_120-levels_1D/object9F0Level37F1Level40.png,img/object-9_120-levels_1D/object9F0Level61F1Level40.png,img/object-9_120-levels_1D/object9F0Level29F1Level40.png,0,0,890.7000000001863,p,pre_exposure,21,53302,1,True,p,38,62,30,-24,8,32,24,8,32,38_62_30,30,62,8,-24,-32,8,24,32,38_30_62,8_-24_-32,8_24_32,1,3,7,16,query_middle,concave,30.0,ref_lowdim,0,0.0,1,ref_lowdim,ref_right,1.0,dense_region,102_78_110,ref_towards_dense
sub_58,1,dense_left,img/object-9_120-levels_1D/object9F0Level101F1Level40.png,img/object-9_120-levels_1D/object9F0Level109F1Level40.png,img/object-9_120-levels_1D/object9F0Level77F1Level40.png,0,0,899.1000000005588,q,pre_exposure,22,55814,1,True,q,102,110,78,-8,24,32,8,24,32,102_110_78,78,110,24,-8,-32,24,8,32,102_78_110,24_-8_-32,8_24_32,2,5,8,16,query_middle,convex,110.0,ref_highdim,1,1.0,2,ref_highdim,ref_left,1.0,sparse_region,38_30_62,ref_towards_sparse
sub_58,1,dense_left,img/object-9_120-levels_1D/object9F0Level69F1Level40.png,img/object-9_120-levels_1D/object9F0Level85F1Level40.png,img/object-9_120-levels_1D/object9F0Level45F1Level40.png,0,0,1085.1000000005588,q,pre_exposure,23,58319,1,True,q,70,86,46,-16,24,40,16,24,40,70_86_46,46,86,24,-16,-40,24,16,40,70_46_86,24_-16_-40,16_24_40,1,3,6,8,query_middle,across_convexity,86.0,ref_highdim,1,1.0,2,ref_highdim,ref_left,1.0,across_density_regions,70_54_94,ref_towards_sparse
sub_58,1,dense_left,img/object-9_120-levels_1D/object9F0Level37F1Level40.png,img/object-9_120-levels_1D/object9F0Level53F1Level40.png,img/object-9_120-levels_1D/object9F0Level29F1Level40.png,0,0,839.8999999994412,p,pre_exposure,24,60823,1,True,p,38,54,30,-16,8,24,16,8,24,38_54_30,30,54,8,-16,-24,8,16,24,38_30_54,8_-16_-24,8_16_24,1,2,5,8,query_middle,concave,30.0,ref_lowdim,0,0.0,1,ref_lowdim,ref_right,1.0,dense_region,102_86_110,ref_towards_dense
sub_58,1,dense_left,img/object-9_120-levels_1D/object9F0Level93F1Level40.png,img/object-9_120-levels_1D/object9F0Level85F1Level40.png,img/object-9_120-levels_1D/object9F0Level109F1Level40.png,0,0,1376.5999999996275,p,pre_exposure,25,63326,1,False,q,94,86,110,8,-16,-24,8,16,24,94_86_110,86,110,8,-16,-24,8,16,24,94_86_110,8_-16_-24,8_16_24,1,3,6,8,query_middle,convex,110.0,ref_highdim,1,1.0,2,ref_lowdim,ref_left,0.0,sparse_region,46_30_54,ref_towards_dense
sub_58,1,dense_left,img/object-9_120-levels_1D/object9F0Level45F1Level40.png,img/object-9_120-levels_1D/object9F0Level61F1Level40.png,img/object-9_120-levels_1D/object9F0Level29F1Level40.png,0,0,1163.0,p,pre_exposure,26,65829,1,,,46,62,30,-16,16,32,16,16,32,46_62_30,30,62,16,-16,-32,16,16,32,46_30_62,16_-16_-32,16_16_32,1,3,3,0,query_middle,concave,30.0,ref_lowdim,0,0.0,1,nan,nan,,dense_region,94_78_110,nan
sub_58,1,dense_left,img/object-9_120-levels_1D/object9F0Level69F1Level40.png,img/object-9_120-levels_1D/object9F0Level45F1Level40.png,img/object-9_120-levels_1D/object9F0Level85F1Level40.png,0,0,1780.5,p,pre_exposure,27,68341,1,True,p,70,46,86,24,-16,-40,24,16,40,70_46_86,46,86,24,-16,-40,24,16,40,70_46_86,24_-16_-40,16_24_40,2,4,7,8,query_middle,across_convexity,86.0,ref_highdim,1,1.0,2,ref_highdim,ref_right,1.0,across_density_regions,70_54_94,ref_towards_sparse
sub_58,1,dense_left,img/object-9_120-levels_1D/object9F0Level53F1Level40.png,img/object-9_120-levels_1D/object9F0Level77F1Level40.png,img/object-9_120-levels_1D/object9F0Level29F1Level40.png,0,0,1533.2999999998137,p,pre_exposure,1,2967,2,,,54,78,30,-24,24,48,24,24,48,54_78_30,30,78,24,-24,-48,24,24,48,54_30_78,24_-24_-48,24_24_48,2,3,3,0,query_middle,concave,30.0,ref_lowdim,0,0.0,1,nan,nan,,dense_region,86_62_110,nan
sub_58,1,dense_left,img/object-9_120-levels_1D/object9F0Level69F1Level40.png,img/object-9_120-levels_1D/object9F0Level77F1Level40.png,img/object-9_120-levels_1D/object9F0Level61F1Level40.png,0,0,1366.699999999255,q,pre_exposure,2,5497,2,,,70,78,62,-8,8,16,8,8,16,70_78_62,62,78,8,-8,-16,8,8,16,70_62_78,8_-8_-16,8_8_16,1,2,2,0,query_middle,across_convexity,78.0,ref_highdim,1,1.0,2,nan,nan,,across_density_regions,70_62_78,nan
sub_58,1,dense_left,img/object-9_120-levels_1D/object9F0Level101F1Level40.png,img/object-9_120-levels_1D/object9F0Level109F1Level40.png,img/object-9_120-levels_1D/object9F0Level85F1Level40.png,0,0,817.2000000001863,q,pre_exposure,3,8017,2,True,q,102,110,86,-8,16,24,8,16,24,102_110_86,86,110,16,-8,-24,16,8,24,102_86_110,16_-8_-24,8_16_24,1,4,7,8,query_middle,convex,110.0,ref_highdim,1,1.0,2,ref_highdim,ref_left,1.0,sparse_region,38_30_54,ref_towards_sparse
sub_58,1,dense_left,img/object-9_120-levels_1D/object9F0Level85F1Level40.png,img/object-9_120-levels_1D/object9F0Level61F1Level40.png,img/object-9_120-levels_1D/object9F0Level109F1Level40.png,0,0,1286.7999999998137,q,pre_exposure,4,10536,2,,,86,62,110,24,-24,-48,24,24,48,86_62_110,62,110,24,-24,-48,24,24,48,86_62_110,24_-24_-48,24_24_48,1,4,4,0,query_middle,convex,62.0,ref_lowdim,0,0.0,1,nan,nan,,sparse_region,54_30_78,nan
sub_58,1,dense_left,img/object-9_120-levels_1D/object9F0Level101F1Level40.png,img/object-9_120-levels_1D/object9F0Level85F1Level40.png,img/object-9_120-levels_1D/object9F0Level109F1Level40.png,0,0,1087.6000000005588,p,pre_exposure,5,13046,2,True,p,102,86,110,16,-8,-24,16,8,24,102_86_110,86,110,16,-8,-24,16,8,24,102_86_110,16_-8_-24,8_16_24,2,5,8,8,query_middle,convex,110.0,ref_highdim,1,1.0,2,ref_highdim,ref_right,1.0,sparse_region,38_30_54,ref_towards_sparse
sub_58,1,dense_left,img/object-9_120-levels_1D/object9F0Level53F1Level40.png,img/object-9_120-levels_1D/object9F0Level29F1Level40.png,img/object-9_120-levels_1D/object9F0Level69F1Level40.png,0,0,1626.7000000001863,q,pre_exposure,6,15556,2,False,p,54,30,70,24,-16,-40,24,16,40,54_30_70,30,70,24,-16,-40,24,16,40,54_30_70,24_-16_-40,16_24_40,2,5,8,8,query_middle,concave,30.0,ref_lowdim,0,0.0,1,ref_highdim,ref_right,0.0,dense_region,86_70_110,ref_towards_sparse
sub_58,1,dense_left,img/object-9_120-levels_1D/object9F0Level69F1Level40.png,img/object-9_120-levels_1D/object9F0Level93F1Level40.png,img/object-9_120-levels_1D/object9F0Level53F1Level40.png,0,0,1686.5,q,pre_exposure,7,18086,2,False,p,70,94,54,-24,16,40,24,16,40,70_94_54,54,94,16,-24,-40,16,24,40,70_54_94,16_-24_-40,16_24_40,2,4,9,8,query_middle,across_convexity,94.0,ref_highdim,1,1.0,2,ref_lowdim,ref_right,0.0,across_density_regions,70_46_86,ref_towards_dense
sub_58,1,dense_left,img/object-9_120-levels_1D/object9F0Level85F1Level40.png,img/object-9_120-levels_1D/object9F0Level109F1Level40.png,img/object-9_120-levels_1D/object9F0Level61F1Level40.png,0,0,1117.2999999998137,q,pre_exposure,8,20597,2,,,86,110,62,-24,24,48,24,24,48,86_110_62,62,110,24,-24,-48,24,24,48,86_62_110,24_-24_-48,24_24_48,2,5,5,0,query_middle,convex,110.0,ref_highdim,1,1.0,2,nan,nan,,sparse_region,54_30_78,nan
sub_58,1,dense_left,img/object-9_120-levels_1D/object9F0Level69F1Level40.png,img/object-9_120-levels_1D/object9F0Level61F1Level40.png,img/object-9_120-levels_1D/object9F0Level77F1Level40.png,0,0,1767.5,p,pre_exposure,9,23127,2,,,70,62,78,8,-8,-16,8,8,16,70_62_78,62,78,8,-8,-16,8,8,16,70_62_78,8_-8_-16,8_8_16,2,3,3,0,query_middle,across_convexity,78.0,ref_highdim,1,1.0,2,nan,nan,,across_density_regions,70_62_78,nan
sub_58,1,dense_left,img/object-9_120-levels_1D/object9F0Level53F1Level40.png,img/object-9_120-levels_1D/object9F0Level61F1Level40.png,img/object-9_120-levels_1D/object9F0Level29F1Level40.png,0,0,807.5999999996275,q,pre_exposure,10,25667,2,True,q,54,62,30,-8,24,32,8,24,32,54_62_30,30,62,24,-8,-32,24,8,32,54_30_62,24_-8_-32,8_24_32,2,6,9,16,query_middle,concave,62.0,ref_highdim,1,1.0,2,ref_highdim,ref_left,1.0,dense_region,86_78_110,ref_towards_sparse
sub_58,1,dense_left,img/object-9_120-levels_1D/object9F0Level85F1Level40.png,img/object-9_120-levels_1D/object9F0Level77F1Level40.png,img/object-9_120-levels_1D/object9F0Level109F1Level40.png,0,0,917.3999999994412,q,pre_exposure,11,28187,2,True,q,86,78,110,8,-24,-32,8,24,32,86_78_110,78,110,8,-24,-32,8,24,32,86_78_110,8_-24_-32,8_24_32,2,4,10,16,query_middle,convex,78.0,ref_lowdim,0,0.0,1,ref_lowdim,ref_left,1.0,sparse_region,54_30_62,ref_towards_dense
sub_58,1,dense_left,img/object-9_120-levels_1D/object9F0Level93F1Level40.png,img/object-9_120-levels_1D/object9F0Level109F1Level40.png,img/object-9_120-levels_1D/object9F0Level85F1Level40.png,0,0,987.1000000005588,q,pre_exposure,12,30690,2,False,p,94,110,86,-16,8,24,16,8,24,94_110_86,86,110,8,-16,-24,8,16,24,94_86_110,8_-16_-24,8_16_24,2,4,9,8,query_middle,convex,110.0,ref_highdim,1,1.0,2,ref_lowdim,ref_right,0.0,sparse_region,46_30_54,ref_towards_dense
sub_58,1,dense_left,img/object-9_120-levels_1D/object9F0Level69F1Level40.png,img/object-9_120-levels_1D/object9F0Level93F1Level40.png,img/object-9_120-levels_1D/object9F0Level61F1Level40.png,0,0,744.7999999998137,q,pre_exposure,13,33195,2,False,p,70,94,62,-24,8,32,24,8,32,70_94_62,62,94,8,-24,-32,8,24,32,70_62_94,8_-24_-32,8_24_32,2,5,11,16,query_middle,across_convexity,94.0,ref_highdim,1,1.0,2,ref_lowdim,ref_right,0.0,across_density_regions,70_46_78,ref_towards_dense
sub_58,1,dense_left,img/object-9_120-levels_1D/object9F0Level45F1Level40.png,img/object-9_120-levels_1D/object9F0Level29F1Level40.png,img/object-9_120-levels_1D/object9F0Level61F1Level40.png,0,0,1098.1000000005588,q,pre_exposure,14,35699,2,,,46,30,62,16,-16,-32,16,16,32,46_30_62,30,62,16,-16,-32,16,16,32,46_30_62,16_-16_-32,16_16_32,2,4,4,0,query_middle,concave,30.0,ref_lowdim,0,0.0,1,nan,nan,,dense_region,94_78_110,nan
sub_58,1,dense_left,img/object-9_120-levels_1D/object9F0Level101F1Level40.png,img/object-9_120-levels_1D/object9F0Level93F1Level40.png,img/object-9_120-levels_1D/object9F0Level109F1Level40.png,0,0,1395.5999999996275,p,pre_exposure,15,38202,2,,,102,94,110,8,-8,-16,8,8,16,102_94_110,94,110,8,-8,-16,8,8,16,102_94_110,8_-8_-16,8_8_16,2,4,4,0,query_middle,convex,110.0,ref_highdim,1,1.0,2,nan,nan,,sparse_region,38_30_46,nan
sub_58,1,dense_left,img/object-9_120-levels_1D/object9F0Level69F1Level40.png,img/object-9_120-levels_1D/object9F0Level45F1Level40.png,img/object-9_120-levels_1D/object9F0Level93F1Level40.png,0,0,1551.9000000003725,p,pre_exposure,16,40705,2,,,70,46,94,24,-24,-48,24,24,48,70_46_94,46,94,24,-24,-48,24,24,48,70_46_94,24_-24_-48,24_24_48,2,6,6,0,query_middle,across_convexity,94.0,ref_highdim,1,1.0,2,nan,nan,,across_density_regions,70_46_94,nan
sub_58,1,dense_left,img/object-9_120-levels_1D/object9F0Level45F1Level40.png,img/object-9_120-levels_1D/object9F0Level69F1Level40.png,img/object-9_120-levels_1D/object9F0Level29F1Level40.png,0,0,1019.2999999998137,p,pre_exposure,17,43209,2,True,p,46,70,30,-24,16,40,24,16,40,46_70_30,30,70,16,-24,-40,16,24,40,46_30_70,16_-24_-40,16_24_40,2,5,10,8,query_middle,concave,30.0,ref_lowdim,0,0.0,1,ref_lowdim,ref_right,1.0,dense_region,94_70_110,ref_towards_dense
sub_58,1,dense_left,img/object-9_120-levels_1D/object9F0Level93F1Level40.png,img/object-9_120-levels_1D/object9F0Level69F1Level40.png,img/object-9_120-levels_1D/object9F0Level109F1Level40.png,0,0,843.7999999998137,p,pre_exposure,18,45714,2,True,p,94,70,110,24,-16,-40,24,16,40,94_70_110,70,110,24,-16,-40,24,16,40,94_70_110,24_-16_-40,16_24_40,2,6,11,8,query_middle,convex,110.0,ref_highdim,1,1.0,2,ref_highdim,ref_right,1.0,sparse_region,46_30_70,ref_towards_sparse
sub_58,1,dense_left,img/object-9_120-levels_1D/object9F0Level37F1Level40.png,img/object-9_120-levels_1D/object9F0Level29F1Level40.png,img/object-9_120-levels_1D/object9F0Level53F1Level40.png,0,0,1220.800000000745,q,pre_exposure,19,48216,2,True,q,38,30,54,8,-16,-24,8,16,24,38_30_54,30,54,8,-16,-24,8,16,24,38_30_54,8_-16_-24,8_16_24,2,5,10,8,query_middle,concave,30.0,ref_lowdim,0,0.0,1,ref_lowdim,ref_left,1.0,dense_region,102_86_110,ref_towards_dense
sub_58,1,dense_left,img/object-9_120-levels_1D/object9F0Level69F1Level40.png,img/object-9_120-levels_1D/object9F0Level61F1Level40.png,img/object-9_120-levels_1D/object9F0Level85F1Level40.png,0,0,1028.1000000005588,q,pre_exposure,20,50724,2,True,q,70,62,86,8,-16,-24,8,16,24,70_62_86,62,86,8,-16,-24,8,16,24,70_62_86,8_-16_-24,8_16_24,2,6,11,8,query_middle,across_convexity,62.0,ref_lowdim,0,0.0,1,ref_lowdim,ref_left,1.0,across_density_regions,70_54_78,ref_towards_dense
sub_58,1,dense_left,img/object-9_120-levels_1D/object9F0Level37F1Level40.png,img/object-9_120-levels_1D/object9F0Level29F1Level40.png,img/object-9_120-levels_1D/object9F0Level45F1Level40.png,0,0,1890.2000000001863,p,pre_exposure,21,53227,2,,,38,30,46,8,-8,-16,8,8,16,38_30_46,30,46,8,-8,-16,8,8,16,38_30_46,8_-8_-16,8_8_16,1,5,5,0,query_middle,concave,46.0,ref_highdim,1,1.0,2,nan,nan,,dense_region,102_94_110,nan
sub_58,1,dense_left,img/object-9_120-levels_1D/object9F0Level69F1Level40.png,img/object-9_120-levels_1D/object9F0Level53F1Level40.png,img/object-9_120-levels_1D/object9F0Level85F1Level40.png,0,0,1736.699999999255,p,pre_exposure,22,55732,2,,,70,54,86,16,-16,-32,16,16,32,70_54_86,54,86,16,-16,-32,16,16,32,70_54_86,16_-16_-32,16_16_32,1,5,5,0,query_middle,across_convexity,86.0,ref_highdim,1,1.0,2,nan,nan,,across_density_regions,70_54_86,nan
sub_58,1,dense_left,img/object-9_120-levels_1D/object9F0Level37F1Level40.png,img/object-9_120-levels_1D/object9F0Level45F1Level40.png,img/object-9_120-levels_1D/object9F0Level29F1Level40.png,0,0,1832.7000000001863,q,pre_exposure,23,58235,2,,,38,46,30,-8,8,16,8,8,16,38_46_30,30,46,8,-8,-16,8,8,16,38_30_46,8_-8_-16,8_8_16,2,6,6,0,query_middle,concave,46.0,ref_highdim,1,1.0,2,nan,nan,,dense_region,102_94_110,nan
sub_58,1,dense_left,img/object-9_120-levels_1D/object9F0Level69F1Level40.png,img/object-9_120-levels_1D/object9F0Level85F1Level40.png,img/object-9_120-levels_1D/object9F0Level53F1Level40.png,0,0,1419.0,q,pre_exposure,24,60739,2,,,70,86,54,-16,16,32,16,16,32,70_86_54,54,86,16,-16,-32,16,16,32,70_54_86,16_-16_-32,16_16_32,2,6,6,0,query_middle,across_convexity,86.0,ref_highdim,1,1.0,2,nan,nan,,across_density_regions,70_54_86,nan
sub_58,1,dense_left,img/object-9_120-levels_1D/object9F0Level37F1Level40.png,img/object-9_120-levels_1D/object9F0Level29F1Level40.png,img/object-9_120-levels_1D/object9F0Level61F1Level40.png,0,0,794.0,q,pre_exposure,25,63242,2,True,q,38,30,62,8,-24,-32,8,24,32,38_30_62,30,62,8,-24,-32,8,24,32,38_30_62,8_-24_-32,8_24_32,2,6,12,16,query_middle,concave,30.0,ref_lowdim,0,0.0,1,ref_lowdim,ref_left,1.0,dense_region,102_78_110,ref_towards_dense
sub_58,1,dense_left,img/object-9_120-levels_1D/object9F0Level85F1Level40.png,img/object-9_120-levels_1D/object9F0Level69F1Level40.png,img/object-9_120-levels_1D/object9F0Level109F1Level40.png,0,0,1671.0,q,pre_exposure,26,65746,2,True,q,86,70,110,16,-24,-40,16,24,40,86_70_110,70,110,16,-24,-40,16,24,40,86_70_110,16_-24_-40,16_24_40,2,6,12,8,query_middle,convex,70.0,ref_lowdim,0,0.0,1,ref_lowdim,ref_left,1.0,sparse_region,54_30_70,ref_towards_dense
sub_58,1,dense_left,img/object-9_120-levels_1D/object9F0Level45F1Level40.png,img/object-9_120-levels_1D/object9F0Level29F1Level40.png,img/object-9_120-levels_1D/object9F0Level53F1Level40.png,0,0,1248.0999999996275,p,pre_exposure,27,68249,2,True,p,46,30,54,16,-8,-24,16,8,24,46_30_54,30,54,16,-8,-24,16,8,24,46_30_54,16_-8_-24,8_16_24,2,6,12,8,query_middle,concave,54.0,ref_highdim,1,1.0,2,ref_highdim,ref_right,1.0,dense_region,94_86_110,ref_towards_sparse
sub_58,1,dense_left,img/object-9_120-levels_1D/object9F0Level69F1Level40.png,img/object-9_120-levels_1D/object9F0Level45F1Level40.png,img/object-9_120-levels_1D/object9F0Level93F1Level40.png,0,0,4061.7000000001863,q,post_exposure,1,5230,1,,,70,46,94,24,-24,-48,24,24,48,70_46_94,46,94,24,-24,-48,24,24,48,70_46_94,24_-24_-48,24_24_48,1,1,1,0,query_middle,across_convexity,46.0,ref_lowdim,0,0.0,1,nan,nan,,across_density_regions,70_46_94,nan
sub_58,1,dense_left,img/object-9_120-levels_1D/object9F0Level101F1Level40.png,img/object-9_120-levels_1D/object9F0Level93F1Level40.png,img/object-9_120-levels_1D/object9F0Level109F1Level40.png,0,0,2119.2000000001863,p,post_exposure,2,7860,1,,,102,94,110,8,-8,-16,8,8,16,102_94_110,94,110,8,-8,-16,8,8,16,102_94_110,8_-8_-16,8_8_16,1,1,1,0,query_middle,convex,110.0,ref_highdim,1,1.0,2,nan,nan,,sparse_region,38_30_46,nan
sub_58,1,dense_left,img/object-9_120-levels_1D/object9F0Level93F1Level40.png,img/object-9_120-levels_1D/object9F0Level85F1Level40.png,img/object-9_120-levels_1D/object9F0Level109F1Level40.png,0,0,1239.4000000003725,q,post_exposure,3,10390,1,True,q,94,86,110,8,-16,-24,8,16,24,94_86_110,86,110,8,-16,-24,8,16,24,94_86_110,8_-16_-24,8_16_24,1,1,1,8,query_middle,convex,86.0,ref_lowdim,0,0.0,1,ref_lowdim,ref_left,1.0,sparse_region,46_30_54,ref_towards_dense
sub_58,1,dense_left,img/object-9_120-levels_1D/object9F0Level53F1Level40.png,img/object-9_120-levels_1D/object9F0Level69F1Level40.png,img/object-9_120-levels_1D/object9F0Level29F1Level40.png,0,0,1130.0,q,post_exposure,4,12930,1,True,q,54,70,30,-16,24,40,16,24,40,54_70_30,30,70,24,-16,-40,24,16,40,54_30_70,24_-16_-40,16_24_40,1,1,1,8,query_middle,concave,70.0,ref_highdim,1,1.0,2,ref_highdim,ref_left,1.0,dense_region,86_70_110,ref_towards_sparse
sub_58,1,dense_left,img/object-9_120-levels_1D/object9F0Level69F1Level40.png,img/object-9_120-levels_1D/object9F0Level85F1Level40.png,img/object-9_120-levels_1D/object9F0Level61F1Level40.png,0,0,950.0,p,post_exposure,5,15450,1,True,p,70,86,62,-16,8,24,16,8,24,70_86_62,62,86,8,-16,-24,8,16,24,70_62_86,8_-16_-24,8_16_24,1,2,2,8,query_middle,across_convexity,62.0,ref_lowdim,0,0.0,1,ref_lowdim,ref_right,1.0,across_density_regions,70_54_78,ref_towards_dense
sub_58,1,dense_left,img/object-9_120-levels_1D/object9F0Level53F1Level40.png,img/object-9_120-levels_1D/object9F0Level61F1Level40.png,img/object-9_120-levels_1D/object9F0Level29F1Level40.png,0,0,979.0,q,post_exposure,6,17975,1,True,q,54,62,30,-8,24,32,8,24,32,54_62_30,30,62,24,-8,-32,24,8,32,54_30_62,24_-8_-32,8_24_32,1,1,1,16,query_middle,concave,62.0,ref_highdim,1,1.0,2,ref_highdim,ref_left,1.0,dense_region,86_78_110,ref_towards_sparse
sub_58,1,dense_left,img/object-9_120-levels_1D/object9F0Level69F1Level40.png,img/object-9_120-levels_1D/object9F0Level77F1Level40.png,img/object-9_120-levels_1D/object9F0Level61F1Level40.png,0,0,1354.5999999996275,p,post_exposure,7,20500,1,,,70,78,62,-8,8,16,8,8,16,70_78_62,62,78,8,-8,-16,8,8,16,70_62_78,8_-8_-16,8_8_16,1,2,2,0,query_middle,across_convexity,62.0,ref_lowdim,0,0.0,1,nan,nan,,across_density_regions,70_62_78,nan
sub_58,1,dense_left,img/object-9_120-levels_1D/object9F0Level93F1Level40.png,img/object-9_120-levels_1D/object9F0Level109F1Level40.png,img/object-9_120-levels_1D/object9F0Level69F1Level40.png,0,0,849.6000000005588,q,post_exposure,8,23030,1,True,q,94,110,70,-16,24,40,16,24,40,94_110_70,70,110,24,-16,-40,24,16,40,94_70_110,24_-16_-40,16_24_40,1,2,2,8,query_middle,convex,110.0,ref_highdim,1,1.0,2,ref_highdim,ref_left,1.0,sparse_region,46_30_70,ref_towards_sparse
sub_58,1,dense_left,img/object-9_120-levels_1D/object9F0Level37F1Level40.png,img/object-9_120-levels_1D/object9F0Level45F1Level40.png,img/object-9_120-levels_1D/object9F0Level29F1Level40.png,0,0,1130.5,q,post_exposure,9,25570,1,,,38,46,30,-8,8,16,8,8,16,38_46_30,30,46,8,-8,-16,8,8,16,38_30_46,8_-8_-16,8_8_16,1,3,3,0,query_middle,concave,46.0,ref_highdim,1,1.0,2,nan,nan,,dense_region,102_94_110,nan
sub_58,1,dense_left,img/object-9_120-levels_1D/object9F0Level85F1Level40.png,img/object-9_120-levels_1D/object9F0Level109F1Level40.png,img/object-9_120-levels_1D/object9F0Level61F1Level40.png,0,0,1389.2999999998137,q,post_exposure,10,28110,1,,,86,110,62,-24,24,48,24,24,48,86_110_62,62,110,24,-24,-48,24,24,48,86_62_110,24_-24_-48,24_24_48,1,2,2,0,query_middle,convex,110.0,ref_highdim,1,1.0,2,nan,nan,,sparse_region,54_30_78,nan
sub_58,1,dense_left,img/object-9_120-levels_1D/object9F0Level69F1Level40.png,img/object-9_120-levels_1D/object9F0Level53F1Level40.png,img/object-9_120-levels_1D/object9F0Level77F1Level40.png,0,0,839.5,p,post_exposure,11,30619,1,True,p,70,54,78,16,-8,-24,16,8,24,70_54_78,54,78,16,-8,-24,16,8,24,70_54_78,16_-8_-24,8_16_24,1,1,3,8,query_middle,across_convexity,78.0,ref_highdim,1,1.0,2,ref_highdim,ref_right,1.0,across_density_regions,70_62_86,ref_towards_sparse
sub_58,1,dense_left,img/object-9_120-levels_1D/object9F0Level85F1Level40.png,img/object-9_120-levels_1D/object9F0Level61F1Level40.png,img/object-9_120-levels_1D/object9F0Level109F1Level40.png,0,0,741.3999999994412,p,post_exposure,12,33123,1,,,86,62,110,24,-24,-48,24,24,48,86_62_110,62,110,24,-24,-48,24,24,48,86_62_110,24_-24_-48,24_24_48,2,3,3,0,query_middle,convex,110.0,ref_highdim,1,1.0,2,nan,nan,,sparse_region,54_30_78,nan
sub_58,1,dense_left,img/object-9_120-levels_1D/object9F0Level69F1Level40.png,img/object-9_120-levels_1D/object9F0Level85F1Level40.png,img/object-9_120-levels_1D/object9F0Level45F1Level40.png,0,0,1087.2999999998137,q,post_exposure,13,35626,1,True,q,70,86,46,-16,24,40,16,24,40,70_86_46,46,86,24,-16,-40,24,16,40,70_46_86,24_-16_-40,16_24_40,1,3,3,8,query_middle,across_convexity,86.0,ref_highdim,1,1.0,2,ref_highdim,ref_left,1.0,across_density_regions,70_54_94,ref_towards_sparse
sub_58,1,dense_left,img/object-9_120-levels_1D/object9F0Level37F1Level40.png,img/object-9_120-levels_1D/object9F0Level29F1Level40.png,img/object-9_120-levels_1D/object9F0Level61F1Level40.png,0,0,833.5,q,post_exposure,14,38130,1,True,q,38,30,62,8,-24,-32,8,24,32,38_30_62,30,62,8,-24,-32,8,24,32,38_30_62,8_-24_-32,8_24_32,1,1,2,16,query_middle,concave,30.0,ref_lowdim,0,0.0,1,ref_lowdim,ref_left,1.0,dense_region,102_78_110,ref_towards_dense
sub_58,1,dense_left,img/object-9_120-levels_1D/object9F0Level53F1Level40.png,img/object-9_120-levels_1D/object9F0Level77F1Level40.png,img/object-9_120-levels_1D/object9F0Level29F1Level40.png,0,0,989.7999999998137,p,post_exposure,15,40634,1,,,54,78,30,-24,24,48,24,24,48,54_78_30,30,78,24,-24,-48,24,24,48,54_30_78,24_-24_-48,24_24_48,1,4,4,0,query_middle,concave,30.0,ref_lowdim,0,0.0,1,nan,nan,,dense_region,86_62_110,nan
sub_58,1,dense_left,img/object-9_120-levels_1D/object9F0Level69F1Level40.png,img/object-9_120-levels_1D/object9F0Level53F1Level40.png,img/object-9_120-levels_1D/object9F0Level93F1Level40.png,0,0,1285.2999999998137,p,post_exposure,16,43138,1,False,q,70,54,94,16,-24,-40,16,24,40,70_54_94,54,94,16,-24,-40,16,24,40,70_54_94,16_-24_-40,16_24_40,1,1,4,8,query_middle,across_convexity,94.0,ref_highdim,1,1.0,2,ref_lowdim,ref_left,0.0,across_density_regions,70_46_86,ref_towards_dense
sub_58,1,dense_left,img/object-9_120-levels_1D/object9F0Level37F1Level40.png,img/object-9_120-levels_1D/object9F0Level29F1Level40.png,img/object-9_120-levels_1D/object9F0Level53F1Level40.png,0,0,1512.5,p,post_exposure,17,45641,1,False,q,38,30,54,8,-16,-24,8,16,24,38_30_54,30,54,8,-16,-24,8,16,24,38_30_54,8_-16_-24,8_16_24,1,3,4,8,query_middle,concave,54.0,ref_highdim,1,1.0,2,ref_lowdim,ref_left,0.0,dense_region,102_86_110,ref_towards_dense
sub_58,1,dense_left,img/object-9_120-levels_1D/object9F0Level69F1Level40.png,img/object-9_120-levels_1D/object9F0Level93F1Level40.png,img/object-9_120-levels_1D/object9F0Level53F1Level40.png,0,0,969.5,p,post_exposure,18,48145,1,True,p,70,94,54,-24,16,40,24,16,40,70_94_54,54,94,16,-24,-40,16,24,40,70_54_94,16_-24_-40,16_24_40,2,2,5,8,query_middle,across_convexity,54.0,ref_lowdim,0,0.0,1,ref_lowdim,ref_right,1.0,across_density_regions,70_46_86,ref_towards_dense
sub_58,1,dense_left,img/object-9_120-levels_1D/object9F0Level93F1Level40.png,img/object-9_120-levels_1D/object9F0Level109F1Level40.png,img/object-9_120-levels_1D/object9F0Level77F1Level40.png,0,0,1174.7000000001863,q,post_exposure,19,50648,1,,,94,110,78,-16,16,32,16,16,32,94_110_78,78,110,16,-16,-32,16,16,32,94_78_110,16_-16_-32,16_16_32,1,1,1,0,query_middle,convex,110.0,ref_highdim,1,1.0,2,nan,nan,,sparse_region,46_30_62,nan
sub_58,1,dense_left,img/object-9_120-levels_1D/object9F0Level101F1Level40.png,img/object-9_120-levels_1D/object9F0Level109F1Level40.png,img/object-9_120-levels_1D/object9F0Level77F1Level40.png,0,0,803.2999999998137,q,post_exposure,20,53151,1,True,q,102,110,78,-8,24,32,8,24,32,102_110_78,78,110,24,-8,-32,24,8,32,102_78_110,24_-8_-32,8_24_32,1,2,3,16,query_middle,convex,110.0,ref_highdim,1,1.0,2,ref_highdim,ref_left,1.0,sparse_region,38_30_62,ref_towards_sparse
sub_58,1,dense_left,img/object-9_120-levels_1D/object9F0Level85F1Level40.png,img/object-9_120-levels_1D/object9F0Level109F1Level40.png,img/object-9_120-levels_1D/object9F0Level69F1Level40.png,0,0,1490.4000000003725,p,post_exposure,21,55655,1,True,p,86,110,70,-24,16,40,24,16,40,86_110_70,70,110,16,-24,-40,16,24,40,86_70_110,16_-24_-40,16_24_40,1,3,6,8,query_middle,convex,70.0,ref_lowdim,0,0.0,1,ref_lowdim,ref_right,1.0,sparse_region,54_30_70,ref_towards_dense
sub_58,1,dense_left,img/object-9_120-levels_1D/object9F0Level93F1Level40.png,img/object-9_120-levels_1D/object9F0Level109F1Level40.png,img/object-9_120-levels_1D/object9F0Level85F1Level40.png,0,0,1336.2000000001863,p,post_exposure,22,58158,1,True,p,94,110,86,-16,8,24,16,8,24,94_110_86,86,110,8,-16,-24,8,16,24,94_86_110,8_-16_-24,8_16_24,2,4,5,8,query_middle,convex,86.0,ref_lowdim,0,0.0,1,ref_lowdim,ref_right,1.0,sparse_region,46_30_54,ref_towards_dense
sub_58,1,dense_left,img/object-9_120-levels_1D/object9F0Level69F1Level40.png,img/object-9_120-levels_1D/object9F0Level93F1Level40.png,img/object-9_120-levels_1D/object9F0Level45F1Level40.png,0,0,1573.0,q,post_exposure,23,60661,1,,,70,94,46,-24,24,48,24,24,48,70_94_46,46,94,24,-24,-48,24,24,48,70_46_94,24_-24_-48,24_24_48,2,5,5,0,query_middle,across_convexity,94.0,ref_highdim,1,1.0,2,nan,nan,,across_density_regions,70_46_94,nan
sub_58,1,dense_left,img/object-9_120-levels_1D/object9F0Level101F1Level40.png,img/object-9_120-levels_1D/object9F0Level109F1Level40.png,img/object-9_120-levels_1D/object9F0Level93F1Level40.png,0,0,1560.1000000005588,p,post_exposure,24,63165,1,,,102,110,94,-8,8,16,8,8,16,102_110_94,94,110,8,-8,-16,8,8,16,102_94_110,8_-8_-16,8_8_16,2,4,4,0,query_middle,convex,94.0,ref_lowdim,0,0.0,1,nan,nan,,sparse_region,38_30_46,nan
sub_58,1,dense_left,img/object-9_120-levels_1D/object9F0Level69F1Level40.png,img/object-9_120-levels_1D/object9F0Level45F1Level40.png,img/object-9_120-levels_1D/object9F0Level85F1Level40.png,0,0,726.2999999998137,p,post_exposure,25,65668,1,True,p,70,46,86,24,-16,-40,24,16,40,70_46_86,46,86,24,-16,-40,24,16,40,70_46_86,24_-16_-40,16_24_40,2,4,7,8,query_middle,across_convexity,86.0,ref_highdim,1,1.0,2,ref_highdim,ref_right,1.0,across_density_regions,70_54_94,ref_towards_sparse
sub_58,1,dense_left,img/object-9_120-levels_1D/object9F0Level53F1Level40.png,img/object-9_120-levels_1D/object9F0Level29F1Level40.png,img/object-9_120-levels_1D/object9F0Level69F1Level40.png,0,0,1412.4000000003725,q,post_exposure,26,68184,1,False,p,54,30,70,24,-16,-40,24,16,40,54_30_70,30,70,24,-16,-40,24,16,40,54_30_70,24_-16_-40,16_24_40,2,5,8,8,query_middle,concave,30.0,ref_lowdim,0,0.0,1,ref_highdim,ref_right,0.0,dense_region,86_70_110,ref_towards_sparse
sub_58,1,dense_left,img/object-9_120-levels_1D/object9F0Level69F1Level40.png,img/object-9_120-levels_1D/object9F0Level77F1Level40.png,img/object-9_120-levels_1D/object9F0Level45F1Level40.png,0,0,1216.7999999998137,q,post_exposure,27,70687,1,True,q,70,78,46,-8,24,32,8,24,32,70_78_46,46,78,24,-8,-32,24,8,32,70_46_78,24_-8_-32,8_24_32,1,3,4,16,query_middle,across_convexity,78.0,ref_highdim,1,1.0,2,ref_highdim,ref_left,1.0,across_density_regions,70_62_94,ref_towards_sparse
sub_58,1,dense_left,img/object-9_120-levels_1D/object9F0Level45F1Level40.png,img/object-9_120-levels_1D/object9F0Level53F1Level40.png,img/object-9_120-levels_1D/object9F0Level29F1Level40.png,0,0,1004.1000000005588,p,post_exposure,1,3011,2,False,q,46,54,30,-8,16,24,8,16,24,46_54_30,30,54,16,-8,-24,16,8,24,46_30_54,16_-8_-24,8_16_24,1,2,6,8,query_middle,concave,30.0,ref_lowdim,0,0.0,1,ref_highdim,ref_left,0.0,dense_region,94_86_110,ref_towards_sparse
sub_58,1,dense_left,img/object-9_120-levels_1D/object9F0Level85F1Level40.png,img/object-9_120-levels_1D/object9F0Level77F1Level40.png,img/object-9_120-levels_1D/object9F0Level109F1Level40.png,0,0,963.5,p,post_exposure,2,5541,2,False,q,86,78,110,8,-24,-32,8,24,32,86_78_110,78,110,8,-24,-32,8,24,32,86_78_110,8_-24_-32,8_24_32,1,2,5,16,query_middle,convex,110.0,ref_highdim,1,1.0,2,ref_lowdim,ref_left,0.0,sparse_region,54_30_62,ref_towards_dense
sub_58,1,dense_left,img/object-9_120-levels_1D/object9F0Level45F1Level40.png,img/object-9_120-levels_1D/object9F0Level61F1Level40.png,img/object-9_120-levels_1D/object9F0Level29F1Level40.png,0,0,1323.4000000003725,q,post_exposure,3,8061,2,,,46,62,30,-16,16,32,16,16,32,46_62_30,30,62,16,-16,-32,16,16,32,46_30_62,16_-16_-32,16_16_32,1,2,2,0,query_middle,concave,62.0,ref_highdim,1,1.0,2,nan,nan,,dense_region,94_78_110,nan
sub_58,1,dense_left,img/object-9_120-levels_1D/object9F0Level53F1Level40.png,img/object-9_120-levels_1D/object9F0Level29F1Level40.png,img/object-9_120-levels_1D/object9F0Level61F1Level40.png,0,0,833.4000000003725,p,post_exposure,4,10601,2,True,p,54,30,62,24,-8,-32,24,8,32,54_30_62,30,62,24,-8,-32,24,8,32,54_30_62,24_-8_-32,8_24_32,2,4,6,16,query_middle,concave,62.0,ref_highdim,1,1.0,2,ref_highdim,ref_right,1.0,dense_region,86_78_110,ref_towards_sparse
sub_58,1,dense_left,img/object-9_120-levels_1D/object9F0Level101F1Level40.png,img/object-9_120-levels_1D/object9F0Level77F1Level40.png,img/object-9_120-levels_1D/object9F0Level109F1Level40.png,0,0,713.8000000007451,p,post_exposure,5,13131,2,True,p,102,78,110,24,-8,-32,24,8,32,102_78_110,78,110,24,-8,-32,24,8,32,102_78_110,24_-8_-32,8_24_32,2,5,7,16,query_middle,convex,110.0,ref_highdim,1,1.0,2,ref_highdim,ref_right,1.0,sparse_region,38_30_62,ref_towards_sparse
sub_58,1,dense_left,img/object-9_120-levels_1D/object9F0Level45F1Level40.png,img/object-9_120-levels_1D/object9F0Level29F1Level40.png,img/object-9_120-levels_1D/object9F0Level53F1Level40.png,0,0,1943.800000000745,p,post_exposure,6,15661,2,True,p,46,30,54,16,-8,-24,16,8,24,46_30_54,30,54,16,-8,-24,16,8,24,46_30_54,16_-8_-24,8_16_24,2,3,7,8,query_middle,concave,54.0,ref_highdim,1,1.0,2,ref_highdim,ref_right,1.0,dense_region,94_86_110,ref_towards_sparse
sub_58,1,dense_left,img/object-9_120-levels_1D/object9F0Level69F1Level40.png,img/object-9_120-levels_1D/object9F0Level85F1Level40.png,img/object-9_120-levels_1D/object9F0Level53F1Level40.png,0,0,1253.9000000003725,q,post_exposure,7,18200,2,,,70,86,54,-16,16,32,16,16,32,70_86_54,54,86,16,-16,-32,16,16,32,70_54_86,16_-16_-32,16_16_32,1,3,3,0,query_middle,across_convexity,86.0,ref_highdim,1,1.0,2,nan,nan,,across_density_regions,70_54_86,nan
sub_58,1,dense_left,img/object-9_120-levels_1D/object9F0Level45F1Level40.png,img/object-9_120-levels_1D/object9F0Level29F1Level40.png,img/object-9_120-levels_1D/object9F0Level69F1Level40.png,0,0,814.0,q,post_exposure,8,20740,2,True,q,46,30,70,16,-24,-40,16,24,40,46_30_70,30,70,16,-24,-40,16,24,40,46_30_70,16_-24_-40,16_24_40,1,4,9,8,query_middle,concave,30.0,ref_lowdim,0,0.0,1,ref_lowdim,ref_left,1.0,dense_region,94_70_110,ref_towards_dense
sub_58,1,dense_left,img/object-9_120-levels_1D/object9F0Level69F1Level40.png,img/object-9_120-levels_1D/object9F0Level61F1Level40.png,img/object-9_120-levels_1D/object9F0Level77F1Level40.png,0,0,1563.5,p,post_exposure,9,23280,2,,,70,62,78,8,-8,-16,8,8,16,70_62_78,62,78,8,-8,-16,8,8,16,70_62_78,8_-8_-16,8_8_16,2,5,5,0,query_middle,across_convexity,78.0,ref_highdim,1,1.0,2,nan,nan,,across_density_regions,70_62_78,nan
sub_58,1,dense_left,img/object-9_120-levels_1D/object9F0Level93F1Level40.png,img/object-9_120-levels_1D/object9F0Level69F1Level40.png,img/object-9_120-levels_1D/object9F0Level109F1Level40.png,0,0,663.4000000003725,p,post_exposure,10,25820,2,True,p,94,70,110,24,-16,-40,24,16,40,94_70_110,70,110,24,-16,-40,24,16,40,94_70_110,24_-16_-40,16_24_40,2,6,10,8,query_middle,convex,110.0,ref_highdim,1,1.0,2,ref_highdim,ref_right,1.0,sparse_region,46_30_70,ref_towards_sparse
sub_58,1,dense_left,img/object-9_120-levels_1D/object9F0Level45F1Level40.png,img/object-9_120-levels_1D/object9F0Level29F1Level40.png,img/object-9_120-levels_1D/object9F0Level61F1Level40.png,0,0,1543.0999999996275,q,post_exposure,11,28360,2,,,46,30,62,16,-16,-32,16,16,32,46_30_62,30,62,16,-16,-32,16,16,32,46_30_62,16_-16_-32,16_16_32,2,4,4,0,query_middle,concave,30.0,ref_lowdim,0,0.0,1,nan,nan,,dense_region,94_78_110,nan
sub_58,1,dense_left,img/object-9_120-levels_1D/object9F0Level69F1Level40.png,img/object-9_120-levels_1D/object9F0Level77F1Level40.png,img/object-9_120-levels_1D/object9F0Level53F1Level40.png,0,0,1164.0,q,post_exposure,12,30864,2,True,q,70,78,54,-8,16,24,8,16,24,70_78_54,54,78,16,-8,-24,16,8,24,70_54_78,16_-8_-24,8_16_24,2,4,8,8,query_middle,across_convexity,78.0,ref_highdim,1,1.0,2,ref_highdim,ref_left,1.0,across_density_regions,70_62_86,ref_towards_sparse
sub_58,1,dense_left,img/object-9_120-levels_1D/object9F0Level101F1Level40.png,img/object-9_120-levels_1D/object9F0Level85F1Level40.png,img/object-9_120-levels_1D/object9F0Level109F1Level40.png,0,0,1740.2999999998137,p,post_exposure,13,33367,2,True,p,102,86,110,16,-8,-24,16,8,24,102_86_110,86,110,16,-8,-24,16,8,24,102_86_110,16_-8_-24,8_16_24,1,5,9,8,query_middle,convex,110.0,ref_highdim,1,1.0,2,ref_highdim,ref_right,1.0,sparse_region,38_30_54,ref_towards_sparse
sub_58,1,dense_left,img/object-9_120-levels_1D/object9F0Level37F1Level40.png,img/object-9_120-levels_1D/object9F0Level61F1Level40.png,img/object-9_120-levels_1D/object9F0Level29F1Level40.png,0,0,686.5999999996275,p,post_exposure,14,35871,2,True,p,38,62,30,-24,8,32,24,8,32,38_62_30,30,62,8,-24,-32,8,24,32,38_30_62,8_-24_-32,8_24_32,2,3,8,16,query_middle,concave,30.0,ref_lowdim,0,0.0,1,ref_lowdim,ref_right,1.0,dense_region,102_78_110,ref_towards_dense
sub_58,1,dense_left,img/object-9_120-levels_1D/object9F0Level85F1Level40.png,img/object-9_120-levels_1D/object9F0Level69F1Level40.png,img/object-9_120-levels_1D/object9F0Level109F1Level40.png,0,0,632.7999999998137,p,post_exposure,15,38374,2,False,q,86,70,110,16,-24,-40,16,24,40,86_70_110,70,110,16,-24,-40,16,24,40,86_70_110,16_-24_-40,16_24_40,2,5,11,8,query_middle,convex,110.0,ref_highdim,1,1.0,2,ref_lowdim,ref_left,0.0,sparse_region,54_30_70,ref_towards_dense
sub_58,1,dense_left,img/object-9_120-levels_1D/object9F0Level69F1Level40.png,img/object-9_120-levels_1D/object9F0Level45F1Level40.png,img/object-9_120-levels_1D/object9F0Level77F1Level40.png,0,0,1290.0,p,post_exposure,16,40877,2,True,p,70,46,78,24,-8,-32,24,8,32,70_46_78,46,78,24,-8,-32,24,8,32,70_46_78,24_-8_-32,8_24_32,2,6,9,16,query_middle,across_convexity,78.0,ref_highdim,1,1.0,2,ref_highdim,ref_right,1.0,across_density_regions,70_62_94,ref_towards_sparse
sub_58,1,dense_left,img/object-9_120-levels_1D/object9F0Level101F1Level40.png,img/object-9_120-levels_1D/object9F0Level109F1Level40.png,img/object-9_120-levels_1D/object9F0Level85F1Level40.png,0,0,3097.0,q,post_exposure,17,44477,2,True,q,102,110,86,-8,16,24,8,16,24,102_110_86,86,110,16,-8,-24,16,8,24,102_86_110,16_-8_-24,8_16_24,2,6,10,8,query_middle,convex,110.0,ref_highdim,1,1.0,2,ref_highdim,ref_left,1.0,sparse_region,38_30_54,ref_towards_sparse
sub_58,1,dense_left,img/object-9_120-levels_1D/object9F0Level69F1Level40.png,img/object-9_120-levels_1D/object9F0Level53F1Level40.png,img/object-9_120-levels_1D/object9F0Level85F1Level40.png,0,0,1126.7000000001863,q,post_exposure,18,46981,2,,,70,54,86,16,-16,-32,16,16,32,70_54_86,54,86,16,-16,-32,16,16,32,70_54_86,16_-16_-32,16_16_32,2,5,5,0,query_middle,across_convexity,54.0,ref_lowdim,0,0.0,1,nan,nan,,across_density_regions,70_54_86,nan
sub_58,1,dense_left,img/object-9_120-levels_1D/object9F0Level93F1Level40.png,img/object-9_120-levels_1D/object9F0Level77F1Level40.png,img/object-9_120-levels_1D/object9F0Level109F1Level40.png,0,0,1003.7999999998137,p,post_exposure,19,49484,2,,,94,78,110,16,-16,-32,16,16,32,94_78_110,78,110,16,-16,-32,16,16,32,94_78_110,16_-16_-32,16_16_32,2,6,6,0,query_middle,convex,110.0,ref_highdim,1,1.0,2,nan,nan,,sparse_region,46_30_62,nan
sub_58,1,dense_left,img/object-9_120-levels_1D/object9F0Level85F1Level40.png,img/object-9_120-levels_1D/object9F0Level109F1Level40.png,img/object-9_120-levels_1D/object9F0Level77F1Level40.png,0,0,1700.0,q,post_exposure,20,51988,2,False,p,86,110,78,-24,8,32,24,8,32,86_110_78,78,110,8,-24,-32,8,24,32,86_78_110,8_-24_-32,8_24_32,2,4,10,16,query_middle,convex,110.0,ref_highdim,1,1.0,2,ref_lowdim,ref_right,0.0,sparse_region,54_30_62,ref_towards_dense
sub_58,1,dense_left,img/object-9_120-levels_1D/object9F0Level69F1Level40.png,img/object-9_120-levels_1D/object9F0Level61F1Level40.png,img/object-9_120-levels_1D/object9F0Level85F1Level40.png,0,0,1875.5,q,post_exposure,21,54492,2,True,q,70,62,86,8,-16,-24,8,16,24,70_62_86,62,86,8,-16,-24,8,16,24,70_62_86,8_-16_-24,8_16_24,2,5,11,8,query_middle,across_convexity,62.0,ref_lowdim,0,0.0,1,ref_lowdim,ref_left,1.0,across_density_regions,70_54_78,ref_towards_dense
sub_58,1,dense_left,img/object-9_120-levels_1D/object9F0Level37F1Level40.png,img/object-9_120-levels_1D/object9F0Level53F1Level40.png,img/object-9_120-levels_1D/object9F0Level29F1Level40.png,0,0,2272.5,p,post_exposure,22,57276,2,True,p,38,54,30,-16,8,24,16,8,24,38_54_30,30,54,8,-16,-24,8,16,24,38_30_54,8_-16_-24,8_16_24,2,6,12,8,query_middle,concave,30.0,ref_lowdim,0,0.0,1,ref_lowdim,ref_right,1.0,dense_region,102_86_110,ref_towards_dense
sub_58,1,dense_left,img/object-9_120-levels_1D/object9F0Level69F1Level40.png,img/object-9_120-levels_1D/object9F0Level93F1Level40.png,img/object-9_120-levels_1D/object9F0Level61F1Level40.png,0,0,1027.300000000745,p,post_exposure,23,59779,2,True,p,70,94,62,-24,8,32,24,8,32,70_94_62,62,94,8,-24,-32,8,24,32,70_62_94,8_-24_-32,8_24_32,1,5,11,16,query_middle,across_convexity,62.0,ref_lowdim,0,0.0,1,ref_lowdim,ref_right,1.0,across_density_regions,70_46_78,ref_towards_dense
sub_58,1,dense_left,img/object-9_120-levels_1D/object9F0Level45F1Level40.png,img/object-9_120-levels_1D/object9F0Level69F1Level40.png,img/object-9_120-levels_1D/object9F0Level29F1Level40.png,0,0,1044.2999999998137,p,post_exposure,24,62283,2,True,p,46,70,30,-24,16,40,24,16,40,46_70_30,30,70,16,-24,-40,16,24,40,46_30_70,16_-24_-40,16_24_40,2,6,12,8,query_middle,concave,30.0,ref_lowdim,0,0.0,1,ref_lowdim,ref_right,1.0,dense_region,94_70_110,ref_towards_dense
sub_58,1,dense_left,img/object-9_120-levels_1D/object9F0Level53F1Level40.png,img/object-9_120-levels_1D/object9F0Level29F1Level40.png,img/object-9_120-levels_1D/object9F0Level77F1Level40.png,0,0,1290.5,q,post_exposure,25,64786,2,,,54,30,78,24,-24,-48,24,24,48,54_30_78,30,78,24,-24,-48,24,24,48,54_30_78,24_-24_-48,24_24_48,2,6,6,0,query_middle,concave,30.0,ref_lowdim,0,0.0,1,nan,nan,,dense_region,86_62_110,nan
sub_58,1,dense_left,img/object-9_120-levels_1D/object9F0Level69F1Level40.png,img/object-9_120-levels_1D/object9F0Level61F1Level40.png,img/object-9_120-levels_1D/object9F0Level93F1Level40.png,0,0,1048.2000000001863,q,post_exposure,26,67289,2,True,q,70,62,94,8,-24,-32,8,24,32,70_62_94,62,94,8,-24,-32,8,24,32,70_62_94,8_-24_-32,8_24_32,2,6,12,16,query_middle,across_convexity,62.0,ref_lowdim,0,0.0,1,ref_lowdim,ref_left,1.0,across_density_regions,70_46_78,ref_towards_dense
sub_58,1,dense_left,img/object-9_120-levels_1D/object9F0Level37F1Level40.png,img/object-9_120-levels_1D/object9F0Level29F1Level40.png,img/object-9_120-levels_1D/object9F0Level45F1Level40.png,0,0,934.8000000007451,p,post_exposure,27,69792,2,,,38,30,46,8,-8,-16,8,8,16,38_30_46,30,46,8,-8,-16,8,8,16,38_30_46,8_-8_-16,8_8_16,2,6,6,0,query_middle,concave,46.0,ref_highdim,1,1.0,2,nan,nan,,dense_region,102_94_110,nan
sub_59,1,dense_right,img/object-9_120-levels_1D/object9F0Level37F1Level40.png,img/object-9_120-levels_1D/object9F0Level29F1Level40.png,img/object-9_120-levels_1D/object9F0Level109F1Level40.png,0,0,1393.7999999998137,q,practice,1,4060,1,True,q,38,30,110,8,-72,-80,8,72,80,38_30_110,30,110,8,-72,-80,8,72,80,38_30_110,8_-72_-80,8_72_80,1,1,1,64,query_middle,concave,30.0,ref_lowdim,1,0.0,1,ref_lowdim,ref_left,1.0,sparse_region,38_30_110,ref_towards_sparse
sub_59,1,dense_right,img/object-9_120-levels_1D/object9F0Level45F1Level40.png,img/object-9_120-levels_1D/object9F0Level37F1Level40.png,img/object-9_120-levels_1D/object9F0Level101F1Level40.png,0,0,1336.0,q,practice,2,6581,1,True,q,46,38,102,8,-56,-64,8,56,64,46_38_102,38,102,8,-56,-64,8,56,64,46_38_102,8_-56_-64,8_56_64,1,1,1,48,query_middle,concave,38.0,ref_lowdim,1,0.0,1,ref_lowdim,ref_left,1.0,sparse_region,46_38_102,ref_towards_sparse
sub_59,1,dense_right,img/object-9_120-levels_1D/object9F0Level37F1Level40.png,img/object-9_120-levels_1D/object9F0Level29F1Level40.png,img/object-9_120-levels_1D/object9F0Level53F1Level40.png,0,0,1709.5,q,practice,3,9106,1,True,q,38,30,54,8,-16,-24,8,16,24,38_30_54,30,54,8,-16,-24,8,16,24,38_30_54,8_-16_-24,8_16_24,1,1,1,8,query_middle,concave,30.0,ref_lowdim,1,0.0,1,ref_lowdim,ref_left,1.0,sparse_region,38_30_54,ref_towards_sparse
sub_59,1,dense_right,img/object-9_120-levels_1D/object9F0Level101F1Level40.png,img/object-9_120-levels_1D/object9F0Level93F1Level40.png,img/object-9_120-levels_1D/object9F0Level109F1Level40.png,0,0,3694.5,p,practice,4,13310,1,,,102,94,110,8,-8,-16,8,8,16,102_94_110,94,110,8,-8,-16,8,8,16,102_94_110,8_-8_-16,8_8_16,1,1,1,0,query_middle,convex,110.0,ref_highdim,0,1.0,2,nan,nan,,dense_region,102_94_110,nan
sub_59,1,dense_right,img/object-9_120-levels_1D/object9F0Level37F1Level40.png,img/object-9_120-levels_1D/object9F0Level101F1Level40.png,img/object-9_120-levels_1D/object9F0Level29F1Level40.png,0,0,1214.2000000001863,p,practice,5,15837,1,True,p,38,102,30,-64,8,72,64,8,72,38_102_30,30,102,8,-64,-72,8,64,72,38_30_102,8_-64_-72,8_64_72,1,1,1,56,query_middle,concave,30.0,ref_lowdim,1,0.0,1,ref_lowdim,ref_right,1.0,sparse_region,38_30_102,ref_towards_sparse
sub_59,1,dense_right,img/object-9_120-levels_1D/object9F0Level61F1Level40.png,img/object-9_120-levels_1D/object9F0Level29F1Level40.png,img/object-9_120-levels_1D/object9F0Level101F1Level40.png,0,0,829.0999999996275,q,practice,6,18357,1,True,q,62,30,102,32,-40,-72,32,40,72,62_30_102,30,102,32,-40,-72,32,40,72,62_30_102,32_-40_-72,32_40_72,1,1,1,8,query_middle,concave,30.0,ref_lowdim,1,0.0,1,ref_lowdim,ref_left,1.0,sparse_region,62_30_102,ref_towards_sparse
sub_59,1,dense_right,img/object-9_120-levels_1D/object9F0Level101F1Level40.png,img/object-9_120-levels_1D/object9F0Level109F1Level40.png,img/object-9_120-levels_1D/object9F0Level85F1Level40.png,0,0,2677.0999999996275,q,practice,7,21545,1,True,q,102,110,86,-8,16,24,8,16,24,102_110_86,86,110,16,-8,-24,16,8,24,102_86_110,16_-8_-24,8_16_24,1,1,2,8,query_middle,convex,110.0,ref_highdim,0,1.0,2,ref_highdim,ref_left,1.0,dense_region,102_86_110,ref_towards_dense
sub_59,1,dense_right,img/object-9_120-levels_1D/object9F0Level37F1Level40.png,img/object-9_120-levels_1D/object9F0Level109F1Level40.png,img/object-9_120-levels_1D/object9F0Level29F1Level40.png,0,0,713.1000000005588,p,practice,8,24069,1,True,p,38,110,30,-72,8,80,72,8,80,38_110_30,30,110,8,-72,-80,8,72,80,38_30_110,8_-72_-80,8_72_80,2,2,2,64,query_middle,concave,30.0,ref_lowdim,1,0.0,1,ref_lowdim,ref_right,1.0,sparse_region,38_30_110,ref_towards_sparse
sub_59,1,dense_right,img/object-9_120-levels_1D/object9F0Level77F1Level40.png,img/object-9_120-levels_1D/object9F0Level109F1Level40.png,img/object-9_120-levels_1D/object9F0Level45F1Level40.png,0,0,1554.0999999996275,q,practice,9,26596,1,,,78,110,46,-32,32,64,32,32,64,78_110_46,46,110,32,-32,-64,32,32,64,78_46_110,32_-32_-64,32_32_64,1,1,1,0,query_middle,convex,110.0,ref_highdim,0,1.0,2,nan,nan,,dense_region,78_46_110,nan
sub_59,1,dense_right,img/object-9_120-levels_1D/object9F0Level37F1Level40.png,img/object-9_120-levels_1D/object9F0Level29F1Level40.png,img/object-9_120-levels_1D/object9F0Level101F1Level40.png,0,0,858.0,q,practice,10,29119,1,True,q,38,30,102,8,-64,-72,8,64,72,38_30_102,30,102,8,-64,-72,8,64,72,38_30_102,8_-64_-72,8_64_72,2,2,2,56,query_middle,concave,30.0,ref_lowdim,1,0.0,1,ref_lowdim,ref_left,1.0,sparse_region,38_30_102,ref_towards_sparse
sub_59,1,dense_right,img/object-9_120-levels_1D/object9F0Level45F1Level40.png,img/object-9_120-levels_1D/object9F0Level101F1Level40.png,img/object-9_120-levels_1D/object9F0Level37F1Level40.png,0,0,917.8999999994412,p,practice,11,31624,1,True,p,46,102,38,-56,8,64,56,8,64,46_102_38,38,102,8,-56,-64,8,56,64,46_38_102,8_-56_-64,8_56_64,2,2,2,48,query_middle,concave,38.0,ref_lowdim,1,0.0,1,ref_lowdim,ref_right,1.0,sparse_region,46_38_102,ref_towards_sparse
sub_59,1,dense_right,img/object-9_120-levels_1D/object9F0Level37F1Level40.png,img/object-9_120-levels_1D/object9F0Level53F1Level40.png,img/object-9_120-levels_1D/object9F0Level29F1Level40.png,0,0,788.9000000003725,p,practice,12,34126,1,True,p,38,54,30,-16,8,24,16,8,24,38_54_30,30,54,8,-16,-24,8,16,24,38_30_54,8_-16_-24,8_16_24,2,2,3,8,query_middle,concave,30.0,ref_lowdim,1,0.0,1,ref_lowdim,ref_right,1.0,sparse_region,38_30_54,ref_towards_sparse
sub_59,1,dense_right,img/object-9_120-levels_1D/object9F0Level101F1Level40.png,img/object-9_120-levels_1D/object9F0Level109F1Level40.png,img/object-9_120-levels_1D/object9F0Level93F1Level40.png,0,0,1673.8999999994412,q,practice,13,36631,1,,,102,110,94,-8,8,16,8,8,16,102_110_94,94,110,8,-8,-16,8,8,16,102_94_110,8_-8_-16,8_8_16,2,2,2,0,query_middle,convex,110.0,ref_highdim,0,1.0,2,nan,nan,,dense_region,102_94_110,nan
sub_59,1,dense_right,img/object-9_120-levels_1D/object9F0Level77F1Level40.png,img/object-9_120-levels_1D/object9F0Level45F1Level40.png,img/object-9_120-levels_1D/object9F0Level109F1Level40.png,0,0,2382.2000000001863,q,practice,14,39516,1,,,78,46,110,32,-32,-64,32,32,64,78_46_110,46,110,32,-32,-64,32,32,64,78_46_110,32_-32_-64,32_32_64,2,2,2,0,query_middle,convex,46.0,ref_lowdim,1,0.0,1,nan,nan,,dense_region,78_46_110,nan
sub_59,1,dense_right,img/object-9_120-levels_1D/object9F0Level93F1Level40.png,img/object-9_120-levels_1D/object9F0Level109F1Level40.png,img/object-9_120-levels_1D/object9F0Level37F1Level40.png,0,0,966.0999999996275,q,practice,15,42020,1,True,q,94,110,38,-16,56,72,16,56,72,94_110_38,38,110,56,-16,-72,56,16,72,94_38_110,56_-16_-72,16_56_72,1,1,1,40,query_middle,convex,110.0,ref_highdim,0,1.0,2,ref_highdim,ref_left,1.0,dense_region,94_38_110,ref_towards_dense
sub_59,1,dense_right,img/object-9_120-levels_1D/object9F0Level37F1Level40.png,img/object-9_120-levels_1D/object9F0Level101F1Level40.png,img/object-9_120-levels_1D/object9F0Level29F1Level40.png,0,0,642.9000000003725,p,practice,16,44524,1,True,p,38,102,30,-64,8,72,64,8,72,38_102_30,30,102,8,-64,-72,8,64,72,38_30_102,8_-64_-72,8_64_72,3,3,3,56,query_middle,concave,30.0,ref_lowdim,1,0.0,1,ref_lowdim,ref_right,1.0,sparse_region,38_30_102,ref_towards_sparse
sub_59,1,dense_right,img/object-9_120-levels_1D/object9F0Level101F1Level40.png,img/object-9_120-levels_1D/object9F0Level85F1Level40.png,img/object-9_120-levels_1D/object9F0Level109F1Level40.png,0,0,1663.4000000003725,p,practice,17,47043,1,True,p,102,86,110,16,-8,-24,16,8,24,102_86_110,86,110,16,-8,-24,16,8,24,102_86_110,16_-8_-24,8_16_24,2,2,4,8,query_middle,convex,110.0,ref_highdim,0,1.0,2,ref_highdim,ref_right,1.0,dense_region,102_86_110,ref_towards_dense
sub_59,1,dense_right,img/object-9_120-levels_1D/object9F0Level37F1Level40.png,img/object-9_120-levels_1D/object9F0Level29F1Level40.png,img/object-9_120-levels_1D/object9F0Level101F1Level40.png,0,0,762.5999999996275,q,practice,18,49548,1,True,q,38,30,102,8,-64,-72,8,64,72,38_30_102,30,102,8,-64,-72,8,64,72,38_30_102,8_-64_-72,8_64_72,4,4,4,56,query_middle,concave,30.0,ref_lowdim,1,0.0,1,ref_lowdim,ref_left,1.0,sparse_region,38_30_102,ref_towards_sparse
sub_59,1,dense_right,img/object-9_120-levels_1D/object9F0Level61F1Level40.png,img/object-9_120-levels_1D/object9F0Level101F1Level40.png,img/object-9_120-levels_1D/object9F0Level29F1Level40.png,0,0,1662.5,p,practice,19,52052,1,True,p,62,102,30,-40,32,72,40,32,72,62_102_30,30,102,32,-40,-72,32,40,72,62_30_102,32_-40_-72,32_40_72,2,2,2,8,query_middle,concave,30.0,ref_lowdim,1,0.0,1,ref_lowdim,ref_right,1.0,sparse_region,62_30_102,ref_towards_sparse
sub_59,1,dense_right,img/object-9_120-levels_1D/object9F0Level93F1Level40.png,img/object-9_120-levels_1D/object9F0Level37F1Level40.png,img/object-9_120-levels_1D/object9F0Level109F1Level40.png,0,0,845.9000000003725,p,practice,20,54562,1,True,p,94,38,110,56,-16,-72,56,16,72,94_38_110,38,110,56,-16,-72,56,16,72,94_38_110,56_-16_-72,16_56_72,2,2,2,40,query_middle,convex,110.0,ref_highdim,0,1.0,2,ref_highdim,ref_right,1.0,dense_region,94_38_110,ref_towards_dense
sub_59,1,dense_right,img/object-9_120-levels_1D/object9F0Level69F1Level40.png,img/object-9_120-levels_1D/object9F0Level45F1Level40.png,img/object-9_120-levels_1D/object9F0Level77F1Level40.png,0,0,1361.4000000003725,p,pre_exposure,1,4117,1,True,p,70,46,78,24,-8,-32,24,8,32,70_46_78,46,78,24,-8,-32,24,8,32,70_46_78,24_-8_-32,8_24_32,1,1,1,16,query_middle,across_convexity,78.0,ref_highdim,0,1.0,2,ref_highdim,ref_right,1.0,across_density_regions,70_46_78,ref_towards_dense
sub_59,1,dense_right,img/object-9_120-levels_1D/object9F0Level45F1Level40.png,img/object-9_120-levels_1D/object9F0Level29F1Level40.png,img/object-9_120-levels_1D/object9F0Level69F1Level40.png,0,0,2788.7999999998137,q,pre_exposure,2,7420,1,True,q,46,30,70,16,-24,-40,16,24,40,46_30_70,30,70,16,-24,-40,16,24,40,46_30_70,16_-24_-40,16_24_40,1,1,1,8,query_middle,concave,30.0,ref_lowdim,1,0.0,1,ref_lowdim,ref_left,1.0,sparse_region,46_30_70,ref_towards_sparse
sub_59,1,dense_right,img/object-9_120-levels_1D/object9F0Level101F1Level40.png,img/object-9_120-levels_1D/object9F0Level109F1Level40.png,img/object-9_120-levels_1D/object9F0Level77F1Level40.png,0,0,1575.7999999998137,q,pre_exposure,3,9942,1,True,q,102,110,78,-8,24,32,8,24,32,102_110_78,78,110,24,-8,-32,24,8,32,102_78_110,24_-8_-32,8_24_32,1,2,2,16,query_middle,convex,110.0,ref_highdim,0,1.0,2,ref_highdim,ref_left,1.0,dense_region,102_78_110,ref_towards_dense
sub_59,1,dense_right,img/object-9_120-levels_1D/object9F0Level69F1Level40.png,img/object-9_120-levels_1D/object9F0Level61F1Level40.png,img/object-9_120-levels_1D/object9F0Level85F1Level40.png,0,0,1249.7999999998137,q,pre_exposure,4,12465,1,True,q,70,62,86,8,-16,-24,8,16,24,70_62_86,62,86,8,-16,-24,8,16,24,70_62_86,8_-16_-24,8_16_24,1,1,1,8,query_middle,across_convexity,62.0,ref_lowdim,1,0.0,1,ref_lowdim,ref_left,1.0,across_density_regions,70_62_86,ref_towards_sparse
sub_59,1,dense_right,img/object-9_120-levels_1D/object9F0Level85F1Level40.png,img/object-9_120-levels_1D/object9F0Level77F1Level40.png,img/object-9_120-levels_1D/object9F0Level109F1Level40.png,0,0,1705.7000000001863,q,pre_exposure,5,14991,1,True,q,86,78,110,8,-24,-32,8,24,32,86_78_110,78,110,8,-24,-32,8,24,32,86_78_110,8_-24_-32,8_24_32,1,1,3,16,query_middle,convex,78.0,ref_lowdim,1,0.0,1,ref_lowdim,ref_left,1.0,dense_region,86_78_110,ref_towards_sparse
sub_59,1,dense_right,img/object-9_120-levels_1D/object9F0Level69F1Level40.png,img/object-9_120-levels_1D/object9F0Level53F1Level40.png,img/object-9_120-levels_1D/object9F0Level77F1Level40.png,0,0,1229.7000000001863,p,pre_exposure,6,17514,1,True,p,70,54,78,16,-8,-24,16,8,24,70_54_78,54,78,16,-8,-24,16,8,24,70_54_78,16_-8_-24,8_16_24,1,1,2,8,query_middle,across_convexity,78.0,ref_highdim,0,1.0,2,ref_highdim,ref_right,1.0,across_density_regions,70_54_78,ref_towards_dense
sub_59,1,dense_right,img/object-9_120-levels_1D/object9F0Level37F1Level40.png,img/object-9_120-levels_1D/object9F0Level45F1Level40.png,img/object-9_120-levels_1D/object9F0Level29F1Level40.png,0,0,1899.2999999998137,q,pre_exposure,7,20042,1,,,38,46,30,-8,8,16,8,8,16,38_46_30,30,46,8,-8,-16,8,8,16,38_30_46,8_-8_-16,8_8_16,1,1,1,0,query_middle,concave,46.0,ref_highdim,0,1.0,2,nan,nan,,sparse_region,38_30_46,nan
sub_59,1,dense_right,img/object-9_120-levels_1D/object9F0Level69F1Level40.png,img/object-9_120-levels_1D/object9F0Level45F1Level40.png,img/object-9_120-levels_1D/object9F0Level85F1Level40.png,0,0,1303.0,p,pre_exposure,8,22572,1,True,p,70,46,86,24,-16,-40,24,16,40,70_46_86,46,86,24,-16,-40,24,16,40,70_46_86,24_-16_-40,16_24_40,1,1,2,8,query_middle,across_convexity,86.0,ref_highdim,0,1.0,2,ref_highdim,ref_right,1.0,across_density_regions,70_46_86,ref_towards_dense
sub_59,1,dense_right,img/object-9_120-levels_1D/object9F0Level53F1Level40.png,img/object-9_120-levels_1D/object9F0Level77F1Level40.png,img/object-9_120-levels_1D/object9F0Level29F1Level40.png,0,0,1898.1000000005588,q,pre_exposure,9,25095,1,,,54,78,30,-24,24,48,24,24,48,54_78_30,30,78,24,-24,-48,24,24,48,54_30_78,24_-24_-48,24_24_48,1,1,1,0,query_middle,concave,78.0,ref_highdim,0,1.0,2,nan,nan,,sparse_region,54_30_78,nan
sub_59,1,dense_right,img/object-9_120-levels_1D/object9F0Level93F1Level40.png,img/object-9_120-levels_1D/object9F0Level69F1Level40.png,img/object-9_120-levels_1D/object9F0Level109F1Level40.png,0,0,1408.1000000005588,p,pre_exposure,10,27622,1,True,p,94,70,110,24,-16,-40,24,16,40,94_70_110,70,110,24,-16,-40,24,16,40,94_70_110,24_-16_-40,16_24_40,1,2,3,8,query_middle,convex,110.0,ref_highdim,0,1.0,2,ref_highdim,ref_right,1.0,dense_region,94_70_110,ref_towards_dense
sub_59,1,dense_right,img/object-9_120-levels_1D/object9F0Level53F1Level40.png,img/object-9_120-levels_1D/object9F0Level29F1Level40.png,img/object-9_120-levels_1D/object9F0Level77F1Level40.png,0,0,984.0,p,pre_exposure,11,30130,1,,,54,30,78,24,-24,-48,24,24,48,54_30_78,30,78,24,-24,-48,24,24,48,54_30_78,24_-24_-48,24_24_48,2,2,2,0,query_middle,concave,78.0,ref_highdim,0,1.0,2,nan,nan,,sparse_region,54_30_78,nan
sub_59,1,dense_right,img/object-9_120-levels_1D/object9F0Level69F1Level40.png,img/object-9_120-levels_1D/object9F0Level93F1Level40.png,img/object-9_120-levels_1D/object9F0Level45F1Level40.png,0,0,2038.2999999998137,q,pre_exposure,12,32671,1,,,70,94,46,-24,24,48,24,24,48,70_94_46,46,94,24,-24,-48,24,24,48,70_46_94,24_-24_-48,24_24_48,1,3,3,0,query_middle,across_convexity,94.0,ref_highdim,0,1.0,2,nan,nan,,across_density_regions,70_46_94,nan
sub_59,1,dense_right,img/object-9_120-levels_1D/object9F0Level45F1Level40.png,img/object-9_120-levels_1D/object9F0Level53F1Level40.png,img/object-9_120-levels_1D/object9F0Level29F1Level40.png,0,0,2322.0,p,pre_exposure,13,35497,1,False,q,46,54,30,-8,16,24,8,16,24,46_54_30,30,54,16,-8,-24,16,8,24,46_30_54,16_-8_-24,8_16_24,1,2,3,8,query_middle,concave,30.0,ref_lowdim,1,0.0,1,ref_highdim,ref_left,0.0,sparse_region,46_30_54,ref_towards_dense
sub_59,1,dense_right,img/object-9_120-levels_1D/object9F0Level69F1Level40.png,img/object-9_120-levels_1D/object9F0Level85F1Level40.png,img/object-9_120-levels_1D/object9F0Level45F1Level40.png,0,0,1243.3999999994412,q,pre_exposure,14,38001,1,True,q,70,86,46,-16,24,40,16,24,40,70_86_46,46,86,24,-16,-40,24,16,40,70_46_86,24_-16_-40,16_24_40,2,3,4,8,query_middle,across_convexity,86.0,ref_highdim,0,1.0,2,ref_highdim,ref_left,1.0,across_density_regions,70_46_86,ref_towards_dense
sub_59,1,dense_right,img/object-9_120-levels_1D/object9F0Level101F1Level40.png,img/object-9_120-levels_1D/object9F0Level109F1Level40.png,img/object-9_120-levels_1D/object9F0Level85F1Level40.png,0,0,2298.2999999998137,q,pre_exposure,15,40801,1,True,q,102,110,86,-8,16,24,8,16,24,102_110_86,86,110,16,-8,-24,16,8,24,102_86_110,16_-8_-24,8_16_24,1,3,4,8,query_middle,convex,110.0,ref_highdim,0,1.0,2,ref_highdim,ref_left,1.0,dense_region,102_86_110,ref_towards_dense
sub_59,1,dense_right,img/object-9_120-levels_1D/object9F0Level53F1Level40.png,img/object-9_120-levels_1D/object9F0Level29F1Level40.png,img/object-9_120-levels_1D/object9F0Level61F1Level40.png,0,0,1819.2999999998137,p,pre_exposure,16,43305,1,True,p,54,30,62,24,-8,-32,24,8,32,54_30_62,30,62,24,-8,-32,24,8,32,54_30_62,24_-8_-32,8_24_32,1,3,4,16,query_middle,concave,62.0,ref_highdim,0,1.0,2,ref_highdim,ref_right,1.0,sparse_region,54_30_62,ref_towards_dense
sub_59,1,dense_right,img/object-9_120-levels_1D/object9F0Level101F1Level40.png,img/object-9_120-levels_1D/object9F0Level85F1Level40.png,img/object-9_120-levels_1D/object9F0Level109F1Level40.png,0,0,2052.7999999998137,p,pre_exposure,17,45861,1,True,p,102,86,110,16,-8,-24,16,8,24,102_86_110,86,110,16,-8,-24,16,8,24,102_86_110,16_-8_-24,8_16_24,2,4,5,8,query_middle,convex,110.0,ref_highdim,0,1.0,2,ref_highdim,ref_right,1.0,dense_region,102_86_110,ref_towards_dense
sub_59,1,dense_right,img/object-9_120-levels_1D/object9F0Level69F1Level40.png,img/object-9_120-levels_1D/object9F0Level61F1Level40.png,img/object-9_120-levels_1D/object9F0Level77F1Level40.png,0,0,1745.0,p,pre_exposure,18,48365,1,,,70,62,78,8,-8,-16,8,8,16,70_62_78,62,78,8,-8,-16,8,8,16,70_62_78,8_-8_-16,8_8_16,1,2,2,0,query_middle,across_convexity,78.0,ref_highdim,0,1.0,2,nan,nan,,across_density_regions,70_62_78,nan
sub_59,1,dense_right,img/object-9_120-levels_1D/object9F0Level37F1Level40.png,img/object-9_120-levels_1D/object9F0Level29F1Level40.png,img/object-9_120-levels_1D/object9F0Level53F1Level40.png,0,0,755.8000000007451,q,pre_exposure,19,50882,1,True,q,38,30,54,8,-16,-24,8,16,24,38_30_54,30,54,8,-16,-24,8,16,24,38_30_54,8_-16_-24,8_16_24,1,2,6,8,query_middle,concave,30.0,ref_lowdim,1,0.0,1,ref_lowdim,ref_left,1.0,sparse_region,38_30_54,ref_towards_sparse
sub_59,1,dense_right,img/object-9_120-levels_1D/object9F0Level69F1Level40.png,img/object-9_120-levels_1D/object9F0Level85F1Level40.png,img/object-9_120-levels_1D/object9F0Level61F1Level40.png,0,0,771.5,p,pre_exposure,20,53400,1,True,p,70,86,62,-16,8,24,16,8,24,70_86_62,62,86,8,-16,-24,8,16,24,70_62_86,8_-16_-24,8_16_24,2,3,7,8,query_middle,across_convexity,62.0,ref_lowdim,1,0.0,1,ref_lowdim,ref_right,1.0,across_density_regions,70_62_86,ref_towards_sparse
sub_59,1,dense_right,img/object-9_120-levels_1D/object9F0Level101F1Level40.png,img/object-9_120-levels_1D/object9F0Level93F1Level40.png,img/object-9_120-levels_1D/object9F0Level109F1Level40.png,0,0,3141.399999999441,p,pre_exposure,21,57045,1,,,102,94,110,8,-8,-16,8,8,16,102_94_110,94,110,8,-8,-16,8,8,16,102_94_110,8_-8_-16,8_8_16,1,3,3,0,query_middle,convex,110.0,ref_highdim,0,1.0,2,nan,nan,,dense_region,102_94_110,nan
sub_59,1,dense_right,img/object-9_120-levels_1D/object9F0Level69F1Level40.png,img/object-9_120-levels_1D/object9F0Level77F1Level40.png,img/object-9_120-levels_1D/object9F0Level61F1Level40.png,0,0,1487.199999999255,p,pre_exposure,22,59549,1,,,70,78,62,-8,8,16,8,8,16,70_78_62,62,78,8,-8,-16,8,8,16,70_62_78,8_-8_-16,8_8_16,2,4,4,0,query_middle,across_convexity,62.0,ref_lowdim,1,0.0,1,nan,nan,,across_density_regions,70_62_78,nan
sub_59,1,dense_right,img/object-9_120-levels_1D/object9F0Level85F1Level40.png,img/object-9_120-levels_1D/object9F0Level109F1Level40.png,img/object-9_120-levels_1D/object9F0Level77F1Level40.png,0,0,1407.7000000001863,p,pre_exposure,23,62054,1,True,p,86,110,78,-24,8,32,24,8,32,86_110_78,78,110,8,-24,-32,8,24,32,86_78_110,8_-24_-32,8_24_32,2,2,5,16,query_middle,convex,78.0,ref_lowdim,1,0.0,1,ref_lowdim,ref_right,1.0,dense_region,86_78_110,ref_towards_sparse
sub_59,1,dense_right,img/object-9_120-levels_1D/object9F0Level69F1Level40.png,img/object-9_120-levels_1D/object9F0Level93F1Level40.png,img/object-9_120-levels_1D/object9F0Level61F1Level40.png,0,0,1035.2999999998137,p,pre_exposure,24,64558,1,True,p,70,94,62,-24,8,32,24,8,32,70_94_62,62,94,8,-24,-32,8,24,32,70_62_94,8_-24_-32,8_24_32,1,3,6,16,query_middle,across_convexity,62.0,ref_lowdim,1,0.0,1,ref_lowdim,ref_right,1.0,across_density_regions,70_62_94,ref_towards_sparse
sub_59,1,dense_right,img/object-9_120-levels_1D/object9F0Level37F1Level40.png,img/object-9_120-levels_1D/object9F0Level29F1Level40.png,img/object-9_120-levels_1D/object9F0Level45F1Level40.png,0,0,1311.699999999255,q,pre_exposure,25,67061,1,,,38,30,46,8,-8,-16,8,8,16,38_30_46,30,46,8,-8,-16,8,8,16,38_30_46,8_-8_-16,8_8_16,2,5,5,0,query_middle,concave,30.0,ref_lowdim,1,0.0,1,nan,nan,,sparse_region,38_30_46,nan
sub_59,1,dense_right,img/object-9_120-levels_1D/object9F0Level53F1Level40.png,img/object-9_120-levels_1D/object9F0Level69F1Level40.png,img/object-9_120-levels_1D/object9F0Level29F1Level40.png,0,0,1026.2999999998137,p,pre_exposure,26,69565,1,False,q,54,70,30,-16,24,40,16,24,40,54_70_30,30,70,24,-16,-40,24,16,40,54_30_70,24_-16_-40,16_24_40,1,4,5,8,query_middle,concave,30.0,ref_lowdim,1,0.0,1,ref_highdim,ref_left,0.0,sparse_region,54_30_70,ref_towards_dense
sub_59,1,dense_right,img/object-9_120-levels_1D/object9F0Level37F1Level40.png,img/object-9_120-levels_1D/object9F0Level53F1Level40.png,img/object-9_120-levels_1D/object9F0Level29F1Level40.png,0,0,1156.2000000001863,p,pre_exposure,27,72071,1,True,p,38,54,30,-16,8,24,16,8,24,38_54_30,30,54,8,-16,-24,8,16,24,38_30_54,8_-16_-24,8_16_24,2,4,8,8,query_middle,concave,30.0,ref_lowdim,1,0.0,1,ref_lowdim,ref_right,1.0,sparse_region,38_30_54,ref_towards_sparse
sub_59,1,dense_right,img/object-9_120-levels_1D/object9F0Level69F1Level40.png,img/object-9_120-levels_1D/object9F0Level53F1Level40.png,img/object-9_120-levels_1D/object9F0Level85F1Level40.png,0,0,2938.2999999998137,p,pre_exposure,1,5094,2,,,70,54,86,16,-16,-32,16,16,32,70_54_86,54,86,16,-16,-32,16,16,32,70_54_86,16_-16_-32,16_16_32,1,1,1,0,query_middle,across_convexity,86.0,ref_highdim,0,1.0,2,nan,nan,,across_density_regions,70_54_86,nan
sub_59,1,dense_right,img/object-9_120-levels_1D/object9F0Level101F1Level40.png,img/object-9_120-levels_1D/object9F0Level109F1Level40.png,img/object-9_120-levels_1D/object9F0Level93F1Level40.png,0,0,1366.0999999996275,q,pre_exposure,2,7616,2,,,102,110,94,-8,8,16,8,8,16,102_110_94,94,110,8,-8,-16,8,8,16,102_94_110,8_-8_-16,8_8_16,2,6,6,0,query_middle,convex,110.0,ref_highdim,0,1.0,2,nan,nan,,dense_region,102_94_110,nan
sub_59,1,dense_right,img/object-9_120-levels_1D/object9F0Level45F1Level40.png,img/object-9_120-levels_1D/object9F0Level29F1Level40.png,img/object-9_120-levels_1D/object9F0Level61F1Level40.png,0,0,1059.199999999255,q,pre_exposure,3,10141,2,,,46,30,62,16,-16,-32,16,16,32,46_30_62,30,62,16,-16,-32,16,16,32,46_30_62,16_-16_-32,16_16_32,1,2,2,0,query_middle,concave,30.0,ref_lowdim,1,0.0,1,nan,nan,,sparse_region,46_30_62,nan
sub_59,1,dense_right,img/object-9_120-levels_1D/object9F0Level69F1Level40.png,img/object-9_120-levels_1D/object9F0Level85F1Level40.png,img/object-9_120-levels_1D/object9F0Level53F1Level40.png,0,0,1071.8999999994412,q,pre_exposure,4,12669,2,,,70,86,54,-16,16,32,16,16,32,70_86_54,54,86,16,-16,-32,16,16,32,70_54_86,16_-16_-32,16_16_32,2,3,3,0,query_middle,across_convexity,86.0,ref_highdim,0,1.0,2,nan,nan,,across_density_regions,70_54_86,nan
sub_59,1,dense_right,img/object-9_120-levels_1D/object9F0Level93F1Level40.png,img/object-9_120-levels_1D/object9F0Level77F1Level40.png,img/object-9_120-levels_1D/object9F0Level109F1Level40.png,0,0,1487.0,p,pre_exposure,5,15197,2,,,94,78,110,16,-16,-32,16,16,32,94_78_110,78,110,16,-16,-32,16,16,32,94_78_110,16_-16_-32,16_16_32,1,4,4,0,query_middle,convex,110.0,ref_highdim,0,1.0,2,nan,nan,,dense_region,94_78_110,nan
sub_59,1,dense_right,img/object-9_120-levels_1D/object9F0Level45F1Level40.png,img/object-9_120-levels_1D/object9F0Level29F1Level40.png,img/object-9_120-levels_1D/object9F0Level53F1Level40.png,0,0,1112.5,q,pre_exposure,6,17721,2,False,p,46,30,54,16,-8,-24,16,8,24,46_30_54,30,54,16,-8,-24,16,8,24,46_30_54,16_-8_-24,8_16_24,2,5,9,8,query_middle,concave,30.0,ref_lowdim,1,0.0,1,ref_highdim,ref_right,0.0,sparse_region,46_30_54,ref_towards_dense
sub_59,1,dense_right,img/object-9_120-levels_1D/object9F0Level37F1Level40.png,img/object-9_120-levels_1D/object9F0Level29F1Level40.png,img/object-9_120-levels_1D/object9F0Level61F1Level40.png,0,0,793.4000000003725,q,pre_exposure,7,20233,2,True,q,38,30,62,8,-24,-32,8,24,32,38_30_62,30,62,8,-24,-32,8,24,32,38_30_62,8_-24_-32,8_24_32,1,4,7,16,query_middle,concave,30.0,ref_lowdim,1,0.0,1,ref_lowdim,ref_left,1.0,sparse_region,38_30_62,ref_towards_sparse
sub_59,1,dense_right,img/object-9_120-levels_1D/object9F0Level69F1Level40.png,img/object-9_120-levels_1D/object9F0Level53F1Level40.png,img/object-9_120-levels_1D/object9F0Level93F1Level40.png,0,0,2096.7000000001863,p,pre_exposure,8,22840,2,False,q,70,54,94,16,-24,-40,16,24,40,70_54_94,54,94,16,-24,-40,16,24,40,70_54_94,16_-24_-40,16_24_40,1,2,6,8,query_middle,across_convexity,94.0,ref_highdim,0,1.0,2,ref_lowdim,ref_left,0.0,across_density_regions,70_54_94,ref_towards_sparse
sub_59,1,dense_right,img/object-9_120-levels_1D/object9F0Level85F1Level40.png,img/object-9_120-levels_1D/object9F0Level109F1Level40.png,img/object-9_120-levels_1D/object9F0Level69F1Level40.png,0,0,1393.3999999994412,p,pre_exposure,9,25360,2,True,p,86,110,70,-24,16,40,24,16,40,86_110_70,70,110,16,-24,-40,16,24,40,86_70_110,16_-24_-40,16_24_40,1,3,7,8,query_middle,convex,70.0,ref_lowdim,1,0.0,1,ref_lowdim,ref_right,1.0,dense_region,86_70_110,ref_towards_sparse
sub_59,1,dense_right,img/object-9_120-levels_1D/object9F0Level93F1Level40.png,img/object-9_120-levels_1D/object9F0Level85F1Level40.png,img/object-9_120-levels_1D/object9F0Level109F1Level40.png,0,0,1301.1000000005588,q,pre_exposure,10,27873,2,True,q,94,86,110,8,-16,-24,8,16,24,94_86_110,86,110,8,-16,-24,8,16,24,94_86_110,8_-16_-24,8_16_24,1,5,10,8,query_middle,convex,86.0,ref_lowdim,1,0.0,1,ref_lowdim,ref_left,1.0,dense_region,94_86_110,ref_towards_sparse
sub_59,1,dense_right,img/object-9_120-levels_1D/object9F0Level69F1Level40.png,img/object-9_120-levels_1D/object9F0Level77F1Level40.png,img/object-9_120-levels_1D/object9F0Level53F1Level40.png,0,0,765.2000000001863,q,pre_exposure,11,30387,2,True,q,70,78,54,-8,16,24,8,16,24,70_78_54,54,78,16,-8,-24,16,8,24,70_54_78,16_-8_-24,8_16_24,2,6,11,8,query_middle,across_convexity,78.0,ref_highdim,0,1.0,2,ref_highdim,ref_left,1.0,across_density_regions,70_54_78,ref_towards_dense
sub_59,1,dense_right,img/object-9_120-levels_1D/object9F0Level93F1Level40.png,img/object-9_120-levels_1D/object9F0Level109F1Level40.png,img/object-9_120-levels_1D/object9F0Level77F1Level40.png,0,0,1389.7000000001863,q,pre_exposure,12,32891,2,,,94,110,78,-16,16,32,16,16,32,94_110_78,78,110,16,-16,-32,16,16,32,94_78_110,16_-16_-32,16_16_32,2,5,5,0,query_middle,convex,110.0,ref_highdim,0,1.0,2,nan,nan,,dense_region,94_78_110,nan
sub_59,1,dense_right,img/object-9_120-levels_1D/object9F0Level85F1Level40.png,img/object-9_120-levels_1D/object9F0Level61F1Level40.png,img/object-9_120-levels_1D/object9F0Level109F1Level40.png,0,0,930.0,p,pre_exposure,13,35394,2,,,86,62,110,24,-24,-48,24,24,48,86_62_110,62,110,24,-24,-48,24,24,48,86_62_110,24_-24_-48,24_24_48,1,4,4,0,query_middle,convex,110.0,ref_highdim,0,1.0,2,nan,nan,,dense_region,86_62_110,nan
sub_59,1,dense_right,img/object-9_120-levels_1D/object9F0Level93F1Level40.png,img/object-9_120-levels_1D/object9F0Level109F1Level40.png,img/object-9_120-levels_1D/object9F0Level85F1Level40.png,0,0,1056.300000000745,p,pre_exposure,14,37913,2,True,p,94,110,86,-16,8,24,16,8,24,94_110_86,86,110,8,-16,-24,8,16,24,94_86_110,8_-16_-24,8_16_24,2,6,12,8,query_middle,convex,86.0,ref_lowdim,1,0.0,1,ref_lowdim,ref_right,1.0,dense_region,94_86_110,ref_towards_sparse
sub_59,1,dense_right,img/object-9_120-levels_1D/object9F0Level45F1Level40.png,img/object-9_120-levels_1D/object9F0Level69F1Level40.png,img/object-9_120-levels_1D/object9F0Level29F1Level40.png,0,0,785.0,p,pre_exposure,15,40418,2,True,p,46,70,30,-24,16,40,24,16,40,46_70_30,30,70,16,-24,-40,16,24,40,46_30_70,16_-24_-40,16_24_40,2,4,8,8,query_middle,concave,30.0,ref_lowdim,1,0.0,1,ref_lowdim,ref_right,1.0,sparse_region,46_30_70,ref_towards_sparse
sub_59,1,dense_right,img/object-9_120-levels_1D/object9F0Level53F1Level40.png,img/object-9_120-levels_1D/object9F0Level29F1Level40.png,img/object-9_120-levels_1D/object9F0Level69F1Level40.png,0,0,1730.5999999996275,q,pre_exposure,16,42922,2,False,p,54,30,70,24,-16,-40,24,16,40,54_30_70,30,70,24,-16,-40,24,16,40,54_30_70,24_-16_-40,16_24_40,2,5,9,8,query_middle,concave,30.0,ref_lowdim,1,0.0,1,ref_highdim,ref_right,0.0,sparse_region,54_30_70,ref_towards_dense
sub_59,1,dense_right,img/object-9_120-levels_1D/object9F0Level69F1Level40.png,img/object-9_120-levels_1D/object9F0Level61F1Level40.png,img/object-9_120-levels_1D/object9F0Level93F1Level40.png,0,0,972.4000000003725,q,pre_exposure,17,45427,2,True,q,70,62,94,8,-24,-32,8,24,32,70_62_94,62,94,8,-24,-32,8,24,32,70_62_94,8_-24_-32,8_24_32,2,5,8,16,query_middle,across_convexity,62.0,ref_lowdim,1,0.0,1,ref_lowdim,ref_left,1.0,across_density_regions,70_62_94,ref_towards_sparse
sub_59,1,dense_right,img/object-9_120-levels_1D/object9F0Level85F1Level40.png,img/object-9_120-levels_1D/object9F0Level69F1Level40.png,img/object-9_120-levels_1D/object9F0Level109F1Level40.png,0,0,1990.0,p,pre_exposure,18,47931,2,False,q,86,70,110,16,-24,-40,16,24,40,86_70_110,70,110,16,-24,-40,16,24,40,86_70_110,16_-24_-40,16_24_40,2,5,10,8,query_middle,convex,110.0,ref_highdim,0,1.0,2,ref_lowdim,ref_left,0.0,dense_region,86_70_110,ref_towards_sparse
sub_59,1,dense_right,img/object-9_120-levels_1D/object9F0Level93F1Level40.png,img/object-9_120-levels_1D/object9F0Level109F1Level40.png,img/object-9_120-levels_1D/object9F0Level69F1Level40.png,0,0,944.4000000003725,q,pre_exposure,19,50435,2,True,q,94,110,70,-16,24,40,16,24,40,94_110_70,70,110,24,-16,-40,24,16,40,94_70_110,24_-16_-40,16_24_40,2,6,11,8,query_middle,convex,110.0,ref_highdim,0,1.0,2,ref_highdim,ref_left,1.0,dense_region,94_70_110,ref_towards_dense
sub_59,1,dense_right,img/object-9_120-levels_1D/object9F0Level101F1Level40.png,img/object-9_120-levels_1D/object9F0Level77F1Level40.png,img/object-9_120-levels_1D/object9F0Level109F1Level40.png,0,0,1165.6000000005588,p,pre_exposure,20,52939,2,True,p,102,78,110,24,-8,-32,24,8,32,102_78_110,78,110,24,-8,-32,24,8,32,102_78_110,24_-8_-32,8_24_32,2,4,9,16,query_middle,convex,110.0,ref_highdim,0,1.0,2,ref_highdim,ref_right,1.0,dense_region,102_78_110,ref_towards_dense
sub_59,1,dense_right,img/object-9_120-levels_1D/object9F0Level69F1Level40.png,img/object-9_120-levels_1D/object9F0Level77F1Level40.png,img/object-9_120-levels_1D/object9F0Level45F1Level40.png,0,0,1162.1000000005588,q,pre_exposure,21,55443,2,True,q,70,78,46,-8,24,32,8,24,32,70_78_46,46,78,24,-8,-32,24,8,32,70_46_78,24_-8_-32,8_24_32,2,5,10,16,query_middle,across_convexity,78.0,ref_highdim,0,1.0,2,ref_highdim,ref_left,1.0,across_density_regions,70_46_78,ref_towards_dense
sub_59,1,dense_right,img/object-9_120-levels_1D/object9F0Level45F1Level40.png,img/object-9_120-levels_1D/object9F0Level61F1Level40.png,img/object-9_120-levels_1D/object9F0Level29F1Level40.png,0,0,1803.2000000001863,q,pre_exposure,22,57947,2,,,46,62,30,-16,16,32,16,16,32,46_62_30,30,62,16,-16,-32,16,16,32,46_30_62,16_-16_-32,16_16_32,2,6,6,0,query_middle,concave,62.0,ref_highdim,0,1.0,2,nan,nan,,sparse_region,46_30_62,nan
sub_59,1,dense_right,img/object-9_120-levels_1D/object9F0Level69F1Level40.png,img/object-9_120-levels_1D/object9F0Level93F1Level40.png,img/object-9_120-levels_1D/object9F0Level53F1Level40.png,0,0,2610.100000000559,p,pre_exposure,23,61061,2,True,p,70,94,54,-24,16,40,24,16,40,70_94_54,54,94,16,-24,-40,16,24,40,70_54_94,16_-24_-40,16_24_40,2,6,12,8,query_middle,across_convexity,54.0,ref_lowdim,1,0.0,1,ref_lowdim,ref_right,1.0,across_density_regions,70_54_94,ref_towards_sparse
sub_59,1,dense_right,img/object-9_120-levels_1D/object9F0Level85F1Level40.png,img/object-9_120-levels_1D/object9F0Level109F1Level40.png,img/object-9_120-levels_1D/object9F0Level61F1Level40.png,0,0,1622.0999999996275,q,pre_exposure,24,63565,2,,,86,110,62,-24,24,48,24,24,48,86_110_62,62,110,24,-24,-48,24,24,48,86_62_110,24_-24_-48,24_24_48,2,5,5,0,query_middle,convex,110.0,ref_highdim,0,1.0,2,nan,nan,,dense_region,86_62_110,nan
sub_59,1,dense_right,img/object-9_120-levels_1D/object9F0Level37F1Level40.png,img/object-9_120-levels_1D/object9F0Level61F1Level40.png,img/object-9_120-levels_1D/object9F0Level29F1Level40.png,0,0,867.7000000001863,p,pre_exposure,25,66102,2,True,p,38,62,30,-24,8,32,24,8,32,38_62_30,30,62,8,-24,-32,8,24,32,38_30_62,8_-24_-32,8_24_32,2,6,11,16,query_middle,concave,30.0,ref_lowdim,1,0.0,1,ref_lowdim,ref_right,1.0,sparse_region,38_30_62,ref_towards_sparse
sub_59,1,dense_right,img/object-9_120-levels_1D/object9F0Level69F1Level40.png,img/object-9_120-levels_1D/object9F0Level45F1Level40.png,img/object-9_120-levels_1D/object9F0Level93F1Level40.png,0,0,1053.0999999996275,q,pre_exposure,26,68606,2,,,70,46,94,24,-24,-48,24,24,48,70_46_94,46,94,24,-24,-48,24,24,48,70_46_94,24_-24_-48,24_24_48,2,6,6,0,query_middle,across_convexity,46.0,ref_lowdim,1,0.0,1,nan,nan,,across_density_regions,70_46_94,nan
sub_59,1,dense_right,img/object-9_120-levels_1D/object9F0Level53F1Level40.png,img/object-9_120-levels_1D/object9F0Level61F1Level40.png,img/object-9_120-levels_1D/object9F0Level29F1Level40.png,0,0,962.0,q,pre_exposure,27,71108,2,True,q,54,62,30,-8,24,32,8,24,32,54_62_30,30,62,24,-8,-32,24,8,32,54_30_62,24_-8_-32,8_24_32,2,6,12,16,query_middle,concave,62.0,ref_highdim,0,1.0,2,ref_highdim,ref_left,1.0,sparse_region,54_30_62,ref_towards_dense
sub_59,1,dense_right,img/object-9_120-levels_1D/object9F0Level69F1Level40.png,img/object-9_120-levels_1D/object9F0Level85F1Level40.png,img/object-9_120-levels_1D/object9F0Level61F1Level40.png,0,0,2195.7000000001863,p,post_exposure,1,4380,1,True,p,70,86,62,-16,8,24,16,8,24,70_86_62,62,86,8,-16,-24,8,16,24,70_62_86,8_-16_-24,8_16_24,1,1,1,8,query_middle,across_convexity,62.0,ref_lowdim,1,0.0,1,ref_lowdim,ref_right,1.0,across_density_regions,70_62_86,ref_towards_sparse
sub_59,1,dense_right,img/object-9_120-levels_1D/object9F0Level101F1Level40.png,img/object-9_120-levels_1D/object9F0Level77F1Level40.png,img/object-9_120-levels_1D/object9F0Level109F1Level40.png,0,0,1491.2000000001863,p,post_exposure,2,6900,1,True,p,102,78,110,24,-8,-32,24,8,32,102_78_110,78,110,24,-8,-32,24,8,32,102_78_110,24_-8_-32,8_24_32,1,1,1,16,query_middle,convex,110.0,ref_highdim,0,1.0,2,ref_highdim,ref_right,1.0,dense_region,102_78_110,ref_towards_dense
sub_59,1,dense_right,img/object-9_120-levels_1D/object9F0Level69F1Level40.png,img/object-9_120-levels_1D/object9F0Level93F1Level40.png,img/object-9_120-levels_1D/object9F0Level61F1Level40.png,0,0,1006.2999999998137,p,post_exposure,3,9430,1,True,p,70,94,62,-24,8,32,24,8,32,70_94_62,62,94,8,-24,-32,8,24,32,70_62_94,8_-24_-32,8_24_32,1,1,2,16,query_middle,across_convexity,62.0,ref_lowdim,1,0.0,1,ref_lowdim,ref_right,1.0,across_density_regions,70_62_94,ref_towards_sparse
sub_59,1,dense_right,img/object-9_120-levels_1D/object9F0Level53F1Level40.png,img/object-9_120-levels_1D/object9F0Level69F1Level40.png,img/object-9_120-levels_1D/object9F0Level29F1Level40.png,0,0,1132.5,q,post_exposure,4,11971,1,True,q,54,70,30,-16,24,40,16,24,40,54_70_30,30,70,24,-16,-40,24,16,40,54_30_70,24_-16_-40,16_24_40,1,1,1,8,query_middle,concave,70.0,ref_highdim,0,1.0,2,ref_highdim,ref_left,1.0,sparse_region,54_30_70,ref_towards_dense
sub_59,1,dense_right,img/object-9_120-levels_1D/object9F0Level69F1Level40.png,img/object-9_120-levels_1D/object9F0Level45F1Level40.png,img/object-9_120-levels_1D/object9F0Level77F1Level40.png,0,0,773.4000000003725,p,post_exposure,5,14500,1,True,p,70,46,78,24,-8,-32,24,8,32,70_46_78,46,78,24,-8,-32,24,8,32,70_46_78,24_-8_-32,8_24_32,1,2,3,16,query_middle,across_convexity,78.0,ref_highdim,0,1.0,2,ref_highdim,ref_right,1.0,across_density_regions,70_46_78,ref_towards_dense
sub_59,1,dense_right,img/object-9_120-levels_1D/object9F0Level37F1Level40.png,img/object-9_120-levels_1D/object9F0Level29F1Level40.png,img/object-9_120-levels_1D/object9F0Level61F1Level40.png,0,0,768.8999999994412,q,post_exposure,6,17040,1,True,q,38,30,62,8,-24,-32,8,24,32,38_30_62,30,62,8,-24,-32,8,24,32,38_30_62,8_-24_-32,8_24_32,1,2,4,16,query_middle,concave,30.0,ref_lowdim,1,0.0,1,ref_lowdim,ref_left,1.0,sparse_region,38_30_62,ref_towards_sparse
sub_59,1,dense_right,img/object-9_120-levels_1D/object9F0Level85F1Level40.png,img/object-9_120-levels_1D/object9F0Level109F1Level40.png,img/object-9_120-levels_1D/object9F0Level77F1Level40.png,0,0,671.5999999996275,p,post_exposure,7,19580,1,True,p,86,110,78,-24,8,32,24,8,32,86_110_78,78,110,8,-24,-32,8,24,32,86_78_110,8_-24_-32,8_24_32,1,3,5,16,query_middle,convex,78.0,ref_lowdim,1,0.0,1,ref_lowdim,ref_right,1.0,dense_region,86_78_110,ref_towards_sparse
sub_59,1,dense_right,img/object-9_120-levels_1D/object9F0Level37F1Level40.png,img/object-9_120-levels_1D/object9F0Level53F1Level40.png,img/object-9_120-levels_1D/object9F0Level29F1Level40.png,0,0,806.7999999998137,p,post_exposure,8,22110,1,True,p,38,54,30,-16,8,24,16,8,24,38_54_30,30,54,8,-16,-24,8,16,24,38_30_54,8_-16_-24,8_16_24,1,2,2,8,query_middle,concave,30.0,ref_lowdim,1,0.0,1,ref_lowdim,ref_right,1.0,sparse_region,38_30_54,ref_towards_sparse
sub_59,1,dense_right,img/object-9_120-levels_1D/object9F0Level85F1Level40.png,img/object-9_120-levels_1D/object9F0Level109F1Level40.png,img/object-9_120-levels_1D/object9F0Level69F1Level40.png,0,0,949.7999999998137,p,post_exposure,9,24650,1,True,p,86,110,70,-24,16,40,24,16,40,86_110_70,70,110,16,-24,-40,16,24,40,86_70_110,16_-24_-40,16_24_40,1,1,2,8,query_middle,convex,70.0,ref_lowdim,1,0.0,1,ref_lowdim,ref_right,1.0,dense_region,86_70_110,ref_towards_sparse
sub_59,1,dense_right,img/object-9_120-levels_1D/object9F0Level69F1Level40.png,img/object-9_120-levels_1D/object9F0Level93F1Level40.png,img/object-9_120-levels_1D/object9F0Level45F1Level40.png,0,0,1186.9000000003725,q,post_exposure,10,27180,1,,,70,94,46,-24,24,48,24,24,48,70_94_46,46,94,24,-24,-48,24,24,48,70_46_94,24_-24_-48,24_24_48,1,1,1,0,query_middle,across_convexity,94.0,ref_highdim,0,1.0,2,nan,nan,,across_density_regions,70_46_94,nan
sub_59,1,dense_right,img/object-9_120-levels_1D/object9F0Level45F1Level40.png,img/object-9_120-levels_1D/object9F0Level29F1Level40.png,img/object-9_120-levels_1D/object9F0Level53F1Level40.png,0,0,1358.800000000745,p,post_exposure,11,29692,1,True,p,46,30,54,16,-8,-24,16,8,24,46_30_54,30,54,16,-8,-24,16,8,24,46_30_54,16_-8_-24,8_16_24,1,1,3,8,query_middle,concave,54.0,ref_highdim,0,1.0,2,ref_highdim,ref_right,1.0,sparse_region,46_30_54,ref_towards_dense
sub_59,1,dense_right,img/object-9_120-levels_1D/object9F0Level69F1Level40.png,img/object-9_120-levels_1D/object9F0Level77F1Level40.png,img/object-9_120-levels_1D/object9F0Level61F1Level40.png,0,0,963.2999999998137,p,post_exposure,12,32211,1,,,70,78,62,-8,8,16,8,8,16,70_78_62,62,78,8,-8,-16,8,8,16,70_62_78,8_-8_-16,8_8_16,1,1,1,0,query_middle,across_convexity,62.0,ref_lowdim,1,0.0,1,nan,nan,,across_density_regions,70_62_78,nan
sub_59,1,dense_right,img/object-9_120-levels_1D/object9F0Level53F1Level40.png,img/object-9_120-levels_1D/object9F0Level29F1Level40.png,img/object-9_120-levels_1D/object9F0Level61F1Level40.png,0,0,1122.1000000005588,p,post_exposure,13,34715,1,True,p,54,30,62,24,-8,-32,24,8,32,54_30_62,30,62,24,-8,-32,24,8,32,54_30_62,24_-8_-32,8_24_32,1,3,6,16,query_middle,concave,62.0,ref_highdim,0,1.0,2,ref_highdim,ref_right,1.0,sparse_region,54_30_62,ref_towards_dense
sub_59,1,dense_right,img/object-9_120-levels_1D/object9F0Level69F1Level40.png,img/object-9_120-levels_1D/object9F0Level93F1Level40.png,img/object-9_120-levels_1D/object9F0Level53F1Level40.png,0,0,1062.5999999996275,p,post_exposure,14,37220,1,True,p,70,94,54,-24,16,40,24,16,40,70_94_54,54,94,16,-24,-40,16,24,40,70_54_94,16_-24_-40,16_24_40,1,2,3,8,query_middle,across_convexity,54.0,ref_lowdim,1,0.0,1,ref_lowdim,ref_right,1.0,across_density_regions,70_54_94,ref_towards_sparse
sub_59,1,dense_right,img/object-9_120-levels_1D/object9F0Level93F1Level40.png,img/object-9_120-levels_1D/object9F0Level109F1Level40.png,img/object-9_120-levels_1D/object9F0Level85F1Level40.png,0,0,851.3999999994412,q,post_exposure,15,39725,1,False,p,94,110,86,-16,8,24,16,8,24,94_110_86,86,110,8,-16,-24,8,16,24,94_86_110,8_-16_-24,8_16_24,1,3,4,8,query_middle,convex,110.0,ref_highdim,0,1.0,2,ref_lowdim,ref_right,0.0,dense_region,94_86_110,ref_towards_sparse
sub_59,1,dense_right,img/object-9_120-levels_1D/object9F0Level85F1Level40.png,img/object-9_120-levels_1D/object9F0Level109F1Level40.png,img/object-9_120-levels_1D/object9F0Level61F1Level40.png,0,0,906.2000000001863,q,post_exposure,16,42229,1,,,86,110,62,-24,24,48,24,24,48,86_110_62,62,110,24,-24,-48,24,24,48,86_62_110,24_-24_-48,24_24_48,1,2,2,0,query_middle,convex,110.0,ref_highdim,0,1.0,2,nan,nan,,dense_region,86_62_110,nan
sub_59,1,dense_right,img/object-9_120-levels_1D/object9F0Level69F1Level40.png,img/object-9_120-levels_1D/object9F0Level77F1Level40.png,img/object-9_120-levels_1D/object9F0Level45F1Level40.png,0,0,774.0999999996275,q,post_exposure,17,44733,1,True,q,70,78,46,-8,24,32,8,24,32,70_78_46,46,78,24,-8,-32,24,8,32,70_46_78,24_-8_-32,8_24_32,2,4,7,16,query_middle,across_convexity,78.0,ref_highdim,0,1.0,2,ref_highdim,ref_left,1.0,across_density_regions,70_46_78,ref_towards_dense
sub_59,1,dense_right,img/object-9_120-levels_1D/object9F0Level45F1Level40.png,img/object-9_120-levels_1D/object9F0Level29F1Level40.png,img/object-9_120-levels_1D/object9F0Level69F1Level40.png,0,0,705.0,q,post_exposure,18,47236,1,True,q,46,30,70,16,-24,-40,16,24,40,46_30_70,30,70,16,-24,-40,16,24,40,46_30_70,16_-24_-40,16_24_40,1,3,4,8,query_middle,concave,30.0,ref_lowdim,1,0.0,1,ref_lowdim,ref_left,1.0,sparse_region,46_30_70,ref_towards_sparse
