prolific_id,rt,response,test_part,trial_type,trial_index,time_elapsed,internal_node_id
sub_01,103836.60000002384,{'Q0': ''},break,survey-text,0,103857,0.0-0.0
sub_01,18478.799999952316,{'Q0': ''},break,survey-text,0,18489,0.0-0.0
sub_01,51609.90000003576,{'Q0': ''},break,survey-text,0,51632,0.0-0.0
sub_01,46737.89999997616,{'Q0': ''},break,survey-text,0,46750,0.0-0.0
sub_01,14854.199999988079,{'Q0': ''},break,survey-text,0,14867,0.0-0.0
sub_01,50844.30000001192,{'Q0': ''},break,survey-text,0,50854,0.0-0.0
sub_01,9780.899999976158,{'Q0': ''},break,survey-text,0,9794,0.0-0.0
sub_01,43564.40000003576,{'Q0': ''},break,survey-text,0,43581,0.0-0.0
sub_01,13736.700000047684,{'Q0': ''},break,survey-text,0,13749,0.0-0.0
sub_01,10994.300000011921,{'Q0': ''},break,survey-text,0,11007,0.0-0.0
sub_02,9044.79999999702,{'Q0': ''},break,survey-text,0,9051,0.0-0.0
sub_02,11811.0,{'Q0': ''},break,survey-text,0,11816,0.0-0.0
sub_02,23740.60000000894,{'Q0': ''},break,survey-text,0,23749,0.0-0.0
sub_02,30235.20000000298,{'Q0': ''},break,survey-text,0,30240,0.0-0.0
sub_02,19548.5,{'Q0': ''},break,survey-text,0,19559,0.0-0.0
sub_02,23171.20000000298,{'Q0': ''},break,survey-text,0,23180,0.0-0.0
sub_02,21789.09999999404,{'Q0': ''},break,survey-text,0,21798,0.0-0.0
sub_02,22457.40000000596,{'Q0': ''},break,survey-text,0,22466,0.0-0.0
sub_02,7130.20000000298,{'Q0': ''},break,survey-text,0,7139,0.0-0.0
sub_02,4774.70000000298,{'Q0': ''},break,survey-text,0,4800,0.0-0.0
sub_03,15775.900000002235,{'Q0': 'no'},break,survey-text,0,15799,0.0-0.0
sub_03,5546.10000000149,{'Q0': 'no'},break,survey-text,0,5560,0.0-0.0
sub_03,40486.199999999255,{'Q0': 'no'},break,survey-text,0,40508,0.0-0.0
sub_03,18596.699999999255,{'Q0': 'no'},break,survey-text,0,18614,0.0-0.0
sub_03,19276.699999999255,{'Q0': 'no'},break,survey-text,0,19293,0.0-0.0
sub_03,7036.300000000745,{'Q0': 'no'},break,survey-text,0,7053,0.0-0.0
sub_03,9489.0,{'Q0': 'no'},break,survey-text,0,9502,0.0-0.0
sub_03,18779.400000002235,{'Q0': 'no'},break,survey-text,0,18791,0.0-0.0
sub_03,6082.900000002235,{'Q0': 'no'},break,survey-text,0,6097,0.0-0.0
sub_03,10922.0,{'Q0': 'no'},break,survey-text,0,10937,0.0-0.0
sub_04,6584.299999998882,{'Q0': ''},break,survey-text,0,6589,0.0-0.0
sub_04,10392.299999998882,{'Q0': ''},break,survey-text,0,10396,0.0-0.0
sub_04,18335.699999999255,{'Q0': ''},break,survey-text,0,18342,0.0-0.0
sub_04,11529.699999999255,{'Q0': ''},break,survey-text,0,11539,0.0-0.0
sub_04,10921.099999999627,{'Q0': ''},break,survey-text,0,10924,0.0-0.0
sub_04,14340.10000000149,{'Q0': ''},break,survey-text,0,14343,0.0-0.0
sub_04,6473.699999999255,{'Q0': ''},break,survey-text,0,6476,0.0-0.0
sub_04,6146.5999999996275,{'Q0': ''},break,survey-text,0,6152,0.0-0.0
sub_04,3091.300000000745,{'Q0': ''},break,survey-text,0,3093,0.0-0.0
sub_04,4026.5,{'Q0': ''},break,survey-text,0,4029,0.0-0.0
sub_05,16518.200000000186,{'Q0': 'No'},break,survey-text,0,16530,0.0-0.0
sub_05,10785.799999999814,{'Q0': 'No'},break,survey-text,0,10796,0.0-0.0
sub_05,95972.09999999963,{'Q0': 'No'},break,survey-text,0,95986,0.0-0.0
sub_05,19112.099999999627,{'Q0': 'No'},break,survey-text,0,19123,0.0-0.0
sub_05,8930.0,{'Q0': 'No'},break,survey-text,0,8940,0.0-0.0
sub_05,7577.399999999441,{'Q0': 'No'},break,survey-text,0,7588,0.0-0.0
sub_05,7465.799999999814,{'Q0': 'No'},break,survey-text,0,7477,0.0-0.0
sub_05,19518.200000000186,{'Q0': 'No'},break,survey-text,0,19532,0.0-0.0
sub_05,7461.799999999814,{'Q0': 'No'},break,survey-text,0,7472,0.0-0.0
sub_05,4641.399999999441,{'Q0': 'No'},break,survey-text,0,4649,0.0-0.0
sub_06,15964.799999952316,{'Q0': 'No'},break,survey-text,0,15970,0.0-0.0
sub_06,12775.100000023842,{'Q0': ''},break,survey-text,0,12782,0.0-0.0
sub_06,55566.799999952316,{'Q0': 'no'},break,survey-text,0,55576,0.0-0.0
sub_06,69639.90000003576,{'Q0': 'no'},break,survey-text,0,69638,0.0-0.0
sub_06,46910.90000003576,{'Q0': 'no'},break,survey-text,0,46914,0.0-0.0
sub_06,48937.10000002384,{'Q0': 'no'},break,survey-text,0,48944,0.0-0.0
sub_06,56259.09999996424,{'Q0': ''},break,survey-text,0,56265,0.0-0.0
sub_06,26301.799999952316,{'Q0': ''},break,survey-text,0,26307,0.0-0.0
sub_06,5249.800000011921,{'Q0': ''},break,survey-text,0,5253,0.0-0.0
sub_06,3846.600000023842,{'Q0': ''},break,survey-text,0,3857,0.0-0.0
sub_07,13081.399999856949,{'Q0': 'No'},break,survey-text,0,13091,0.0-0.0
sub_07,17284.299999952316,{'Q0': 'No'},break,survey-text,0,17290,0.0-0.0
sub_07,22300.89999985695,{'Q0': 'no'},break,survey-text,0,22312,0.0-0.0
sub_07,46623.799999952316,{'Q0': 'No'},break,survey-text,0,46629,0.0-0.0
sub_07,23077.599999904633,{'Q0': 'No'},break,survey-text,0,23083,0.0-0.0
sub_07,14815.599999904633,{'Q0': 'No'},break,survey-text,0,14821,0.0-0.0
sub_07,59241.799999952316,{'Q0': 'No\n'},break,survey-text,0,59248,0.0-0.0
sub_07,41936.40000009537,{'Q0': 'No'},break,survey-text,0,41941,0.0-0.0
sub_07,21419.5,{'Q0': 'No'},break,survey-text,0,21425,0.0-0.0
sub_07,6629.300000190735,{'Q0': 'No'},break,survey-text,0,6634,0.0-0.0
sub_08,22122.800000000745,{'Q0': 'no'},break,survey-text,0,22133,0.0-0.0
sub_08,48195.199999999255,{'Q0': 'no'},break,survey-text,0,48206,0.0-0.0
sub_08,25589.699999999255,{'Q0': 'no'},break,survey-text,0,25604,0.0-0.0
sub_08,16016.0,{'Q0': 'no'},break,survey-text,0,16025,0.0-0.0
sub_08,15797.699999999255,{'Q0': 'no'},break,survey-text,0,15808,0.0-0.0
sub_08,9850.200000001118,{'Q0': 'no'},break,survey-text,0,9859,0.0-0.0
sub_08,10391.299999998882,{'Q0': 'no'},break,survey-text,0,10401,0.0-0.0
sub_08,12320.099999999627,{'Q0': 'no'},break,survey-text,0,12333,0.0-0.0
sub_08,8450.699999999255,{'Q0': 'no'},break,survey-text,0,8460,0.0-0.0
sub_08,4414.5999999996275,{'Q0': 'no'},break,survey-text,0,4424,0.0-0.0
sub_09,15328.900000035763,{'Q0': 'no'},break,survey-text,0,15335,0.0-0.0
sub_09,11657.600000023842,{'Q0': 'no'},break,survey-text,0,11661,0.0-0.0
sub_09,41172.60000002384,{'Q0': 'no'},break,survey-text,0,41179,0.0-0.0
sub_09,21041.0,{'Q0': ''},break,survey-text,0,21045,0.0-0.0
sub_09,12728.5,{'Q0': 'no'},break,survey-text,0,12733,0.0-0.0
sub_09,17101.399999976158,{'Q0': 'no'},break,survey-text,0,17107,0.0-0.0
sub_09,16481.19999998808,{'Q0': 'no'},break,survey-text,0,16486,0.0-0.0
sub_09,8135.100000023842,{'Q0': 'no'},break,survey-text,0,8140,0.0-0.0
sub_09,5336.5,{'Q0': 'no'},break,survey-text,0,5341,0.0-0.0
sub_09,10829.699999988079,{'Q0': 'no'},break,survey-text,0,10834,0.0-0.0
sub_10,19720.10000000149,{'Q0': 'no'},break,survey-text,0,19725,0.0-0.0
sub_10,5654.699999999255,{'Q0': 'no'},break,survey-text,0,5658,0.0-0.0
sub_10,48993.699999999255,{'Q0': 'no'},break,survey-text,0,49000,0.0-0.0
sub_10,17230.60000000149,{'Q0': 'no'},break,survey-text,0,17235,0.0-0.0
sub_10,10520.0,{'Q0': 'No\n'},break,survey-text,0,10523,0.0-0.0
sub_10,9232.0,{'Q0': 'No'},break,survey-text,0,9235,0.0-0.0
sub_10,5244.29999999702,{'Q0': 'No'},break,survey-text,0,5248,0.0-0.0
sub_10,12771.199999999255,{'Q0': 'No'},break,survey-text,0,12775,0.0-0.0
sub_10,7397.300000000745,{'Q0': 'No'},break,survey-text,0,7401,0.0-0.0
sub_10,5466.800000000745,{'Q0': 'No'},break,survey-text,0,5470,0.0-0.0
sub_11,11693.799999952316,{'Q0': 'no'},break,survey-text,0,11739,0.0-0.0
sub_11,6502.299999952316,{'Q0': 'no'},break,survey-text,0,6508,0.0-0.0
sub_11,43187.0,{'Q0': 'no'},break,survey-text,0,43232,0.0-0.0
sub_11,9532.899999856949,{'Q0': ''},break,survey-text,0,9545,0.0-0.0
sub_11,7625.299999952316,{'Q0': 'no'},break,survey-text,0,7632,0.0-0.0
sub_11,8522.0,{'Q0': ''},break,survey-text,0,8532,0.0-0.0
sub_11,6348.700000047684,{'Q0': 'no'},break,survey-text,0,6359,0.0-0.0
sub_11,6572.900000095367,{'Q0': 'no'},break,survey-text,0,6609,0.0-0.0
sub_11,5462.299999952316,{'Q0': 'no'},break,survey-text,0,5468,0.0-0.0
sub_11,5278.099999904633,{'Q0': 'no'},break,survey-text,0,5284,0.0-0.0
sub_12,16832.899999976158,{'Q0': ''},break,survey-text,0,16841,0.0-0.0
sub_12,11714.700000047684,{'Q0': ''},break,survey-text,0,11722,0.0-0.0
sub_12,25092.099999904633,{'Q0': ''},break,survey-text,0,25102,0.0-0.0
sub_12,20872.299999952316,{'Q0': ''},break,survey-text,0,20879,0.0-0.0
sub_12,6286.0,{'Q0': ''},break,survey-text,0,6294,0.0-0.0
sub_12,4194.399999976158,{'Q0': ''},break,survey-text,0,4202,0.0-0.0
sub_12,7194.399999976158,{'Q0': ''},break,survey-text,0,7201,0.0-0.0
sub_12,4333.5,{'Q0': ''},break,survey-text,0,4342,0.0-0.0
sub_12,3997.5,{'Q0': ''},break,survey-text,0,4005,0.0-0.0
sub_12,2094.4000000953674,{'Q0': ''},break,survey-text,0,2102,0.0-0.0
sub_13,8392.199999809265,{'Q0': ''},break,survey-text,0,8399,0.0-0.0
sub_13,14559.599999904633,{'Q0': 'No'},break,survey-text,0,14564,0.0-0.0
sub_13,34742.5,{'Q0': 'No'},break,survey-text,0,34755,0.0-0.0
sub_13,12767.099999904633,{'Q0': 'no'},break,survey-text,0,12771,0.0-0.0
sub_13,9694.200000047684,{'Q0': ''},break,survey-text,0,9698,0.0-0.0
sub_13,23665.400000095367,{'Q0': ''},break,survey-text,0,23670,0.0-0.0
sub_13,7881.600000143051,{'Q0': ''},break,survey-text,0,7887,0.0-0.0
sub_13,18713.0,{'Q0': 'No'},break,survey-text,0,18718,0.0-0.0
sub_13,9010.0,{'Q0': 'no'},break,survey-text,0,9014,0.0-0.0
sub_13,8056.900000095367,{'Q0': 'No'},break,survey-text,0,8061,0.0-0.0
sub_14,32434.19999998808,{'Q0': ''},break,survey-text,0,32446,0.0-0.0
sub_14,4019.0,{'Q0': ''},break,survey-text,0,4027,0.0-0.0
sub_14,29501.69999998808,{'Q0': ''},break,survey-text,0,29508,0.0-0.0
sub_14,15187.599999964237,{'Q0': ''},break,survey-text,0,15192,0.0-0.0
sub_14,9713.0,{'Q0': ''},break,survey-text,0,9721,0.0-0.0
sub_14,28155.100000023842,{'Q0': ''},break,survey-text,0,28159,0.0-0.0
sub_14,16468.69999998808,{'Q0': ''},break,survey-text,0,16474,0.0-0.0
sub_14,21412.799999952316,{'Q0': ''},break,survey-text,0,21417,0.0-0.0
sub_14,13232.099999964237,{'Q0': ''},break,survey-text,0,13240,0.0-0.0
sub_14,3111.2999999523163,{'Q0': ''},break,survey-text,0,3121,0.0-0.0
sub_15,44758.10000002384,{'Q0': ''},break,survey-text,0,44765,0.0-0.0
sub_15,82409.80000001192,{'Q0': ''},break,survey-text,0,82414,0.0-0.0
sub_15,100806.59999996424,{'Q0': ''},break,survey-text,0,100813,0.0-0.0
sub_15,36587.19999998808,{'Q0': ''},break,survey-text,0,36590,0.0-0.0
sub_15,114424.60000002384,{'Q0': ''},break,survey-text,0,114429,0.0-0.0
sub_15,59080.69999998808,{'Q0': ''},break,survey-text,0,59084,0.0-0.0
sub_15,7567.300000011921,{'Q0': ''},break,survey-text,0,7570,0.0-0.0
sub_15,11217.5,{'Q0': ''},break,survey-text,0,11229,0.0-0.0
sub_15,7192.300000011921,{'Q0': ''},break,survey-text,0,7195,0.0-0.0
sub_15,3468.800000011921,{'Q0': ''},break,survey-text,0,3477,0.0-0.0
sub_16,13849.79999999702,{'Q0': 'no'},break,survey-text,0,13857,0.0-0.0
sub_16,7923.80000000447,{'Q0': 'no'},break,survey-text,0,7930,0.0-0.0
sub_16,33560.89999999851,{'Q0': 'no'},break,survey-text,0,33572,0.0-0.0
sub_16,30193.39999999851,{'Q0': 'no'},break,survey-text,0,30200,0.0-0.0
sub_16,19824.29999999702,{'Q0': 'no'},break,survey-text,0,19830,0.0-0.0
sub_16,13585.30000000447,{'Q0': 'no'},break,survey-text,0,13591,0.0-0.0
sub_16,8654.0,{'Q0': 'no'},break,survey-text,0,8660,0.0-0.0
sub_16,13524.79999999702,{'Q0': 'no'},break,survey-text,0,13531,0.0-0.0
sub_16,6942.89999999851,{'Q0': 'no'},break,survey-text,0,6948,0.0-0.0
sub_16,8411.19999999553,{'Q0': 'no'},break,survey-text,0,8428,0.0-0.0
sub_17,81636.19999998808,{'Q0': 'I felt some  lag in response to key presses'},break,survey-text,0,81644,0.0-0.0
sub_17,16424.89999999106,{'Q0': 'Felt some key presses didnt register'},break,survey-text,0,16428,0.0-0.0
sub_17,16509.70000000298,{'Q0': ''},break,survey-text,0,16519,0.0-0.0
sub_17,9789.199999988079,{'Q0': ''},break,survey-text,0,9792,0.0-0.0
sub_17,3340.4000000059605,{'Q0': ''},break,survey-text,0,3343,0.0-0.0
sub_17,9033.60000000894,{'Q0': ''},break,survey-text,0,9042,0.0-0.0
sub_17,7565.0,{'Q0': ''},break,survey-text,0,7568,0.0-0.0
sub_17,7270.29999999702,{'Q0': ''},break,survey-text,0,7274,0.0-0.0
sub_17,4438.100000008941,{'Q0': ''},break,survey-text,0,4446,0.0-0.0
sub_17,1957.5999999940395,{'Q0': ''},break,survey-text,0,1960,0.0-0.0
sub_18,12307.40000000596,{'Q0': ''},break,survey-text,0,12320,0.0-0.0
sub_18,8775.79999999702,{'Q0': ''},break,survey-text,0,8787,0.0-0.0
sub_18,17580.90000000596,{'Q0': ''},break,survey-text,0,17597,0.0-0.0
sub_18,68574.40000000596,{'Q0': ''},break,survey-text,0,68582,0.0-0.0
sub_18,29004.40000000596,{'Q0': ''},break,survey-text,0,29015,0.0-0.0
sub_18,44557.5,{'Q0': ''},break,survey-text,0,44599,0.0-0.0
sub_18,52117.90000000596,{'Q0': ''},break,survey-text,0,52176,0.0-0.0
sub_18,6850.79999999702,{'Q0': ''},break,survey-text,0,6934,0.0-0.0
sub_18,6366.800000011921,{'Q0': ''},break,survey-text,0,6397,0.0-0.0
sub_18,1893.7999999970198,{'Q0': ''},break,survey-text,0,1940,0.0-0.0
sub_19,43791.69999999553,{'Q0': ''},break,survey-text,0,43802,0.0-0.0
sub_19,26698.39999999851,{'Q0': ''},break,survey-text,0,26704,0.0-0.0
sub_19,32859.5,{'Q0': ''},break,survey-text,0,32867,0.0-0.0
sub_19,29499.5,{'Q0': ''},break,survey-text,0,29505,0.0-0.0
sub_19,28576.5,{'Q0': ''},break,survey-text,0,28581,0.0-0.0
sub_19,131444.1000000015,{'Q0': ''},break,survey-text,0,131450,0.0-0.0
sub_19,14513.09999999404,{'Q0': ''},break,survey-text,0,14519,0.0-0.0
sub_19,9873.09999999404,{'Q0': ''},break,survey-text,0,9879,0.0-0.0
sub_19,15606.5,{'Q0': ''},break,survey-text,0,15611,0.0-0.0
sub_19,21507.20000000298,{'Q0': ''},break,survey-text,0,21512,0.0-0.0
sub_20,16185.099999964237,{'Q0': ''},break,survey-text,0,16197,0.0-0.0
sub_20,10403.199999988079,{'Q0': ''},break,survey-text,0,10409,0.0-0.0
sub_20,46978.09999996424,{'Q0': ''},break,survey-text,0,46995,0.0-0.0
sub_20,20518.299999952316,{'Q0': ''},break,survey-text,0,20527,0.0-0.0
sub_20,24773.799999952316,{'Q0': ''},break,survey-text,0,24779,0.0-0.0
sub_20,30494.599999964237,{'Q0': ''},break,survey-text,0,30500,0.0-0.0
sub_20,9148.200000047684,{'Q0': ''},break,survey-text,0,9155,0.0-0.0
sub_20,15629.199999988079,{'Q0': ''},break,survey-text,0,15643,0.0-0.0
sub_20,7078.399999976158,{'Q0': ''},break,survey-text,0,7083,0.0-0.0
sub_20,5902.600000023842,{'Q0': ''},break,survey-text,0,5913,0.0-0.0
sub_21,9813.599999999977,{'Q0': 'No'},break,survey-text,0,9818,0.0-0.0
sub_21,8794.599999999977,{'Q0': 'No'},break,survey-text,0,8798,0.0-0.0
sub_21,29274.099999999977,{'Q0': 'No'},break,survey-text,0,29294,0.0-0.0
sub_21,13373.099999999977,{'Q0': 'No'},break,survey-text,0,13377,0.0-0.0
sub_21,17124.79999999993,{'Q0': 'No'},break,survey-text,0,17128,0.0-0.0
sub_21,7816.699999999953,{'Q0': 'No'},break,survey-text,0,7819,0.0-0.0
sub_21,13836.399999999907,{'Q0': 'No'},break,survey-text,0,13837,0.0-0.0
sub_21,13395.399999999907,{'Q0': 'No'},break,survey-text,0,13395,0.0-0.0
sub_21,7214.899999999907,{'Q0': 'No'},break,survey-text,0,7218,0.0-0.0
sub_21,5677.90000000014,{'Q0': 'No'},break,survey-text,0,5682,0.0-0.0
sub_22,18509.599999999627,{'Q0': ''},break,survey-text,0,18539,0.0-0.0
sub_22,6366.0,{'Q0': ''},break,survey-text,0,6388,0.0-0.0
sub_22,56126.89999999991,{'Q0': ''},break,survey-text,0,56150,0.0-0.0
sub_22,17231.099999999627,{'Q0': ''},break,survey-text,0,17249,0.0-0.0
sub_22,8227.100000000093,{'Q0': ''},break,survey-text,0,8246,0.0-0.0
sub_22,4098.699999999721,{'Q0': ''},break,survey-text,0,4118,0.0-0.0
sub_22,5269.5,{'Q0': ''},break,survey-text,0,5288,0.0-0.0
sub_22,8846.0,{'Q0': ''},break,survey-text,0,8866,0.0-0.0
sub_22,4127.700000000186,{'Q0': ''},break,survey-text,0,4149,0.0-0.0
sub_22,8222.599999999627,{'Q0': ''},break,survey-text,0,8240,0.0-0.0
sub_23,10218.09999999404,{'Q0': ''},break,survey-text,0,10223,0.0-0.0
sub_23,12467.5,{'Q0': ''},break,survey-text,0,12471,0.0-0.0
sub_23,58177.19999998808,{'Q0': ''},break,survey-text,0,58184,0.0-0.0
sub_23,21590.29999999702,{'Q0': ''},break,survey-text,0,21595,0.0-0.0
sub_23,21810.10000000894,{'Q0': ''},break,survey-text,0,21813,0.0-0.0
sub_23,18375.30000001192,{'Q0': ''},break,survey-text,0,18378,0.0-0.0
sub_23,16593.89999999106,{'Q0': ''},break,survey-text,0,16597,0.0-0.0
sub_23,28619.40000000596,{'Q0': ''},break,survey-text,0,28624,0.0-0.0
sub_23,16727.0,{'Q0': ''},break,survey-text,0,16730,0.0-0.0
sub_23,6314.100000008941,{'Q0': ''},break,survey-text,0,6318,0.0-0.0
sub_24,17662.69999998808,{'Q0': 'N/A'},break,survey-text,0,17668,0.0-0.0
sub_24,12606.200000047684,{'Q0': 'N/A'},break,survey-text,0,12610,0.0-0.0
sub_24,58282.5,{'Q0': 'N/A'},break,survey-text,0,58292,0.0-0.0
sub_24,20633.099999964237,{'Q0': 'N/A'},break,survey-text,0,20637,0.0-0.0
sub_24,29751.5,{'Q0': 'N/A'},break,survey-text,0,29754,0.0-0.0
sub_24,49672.30000001192,{'Q0': 'N/A'},break,survey-text,0,49676,0.0-0.0
sub_24,11876.599999964237,{'Q0': 'N/A'},break,survey-text,0,11881,0.0-0.0
sub_24,13778.699999988079,{'Q0': 'N/A'},break,survey-text,0,13782,0.0-0.0
sub_24,8611.0,{'Q0': 'N/A'},break,survey-text,0,8615,0.0-0.0
sub_24,7523.100000023842,{'Q0': 'N/A'},break,survey-text,0,7527,0.0-0.0
sub_25,17646.0,{'Q0': 'no'},break,survey-text,0,17650,0.0-0.0
sub_25,9067.0,{'Q0': 'no'},break,survey-text,0,9072,0.0-0.0
sub_25,45402.0,{'Q0': 'No'},break,survey-text,0,45407,0.0-0.0
sub_25,168509.0,"{'Q0': 'A practice round for this would have been good, it took some time for me to get my eye in.'}",break,survey-text,0,168514,0.0-0.0
sub_25,33826.0,{'Q0': 'No'},break,survey-text,0,33831,0.0-0.0
sub_25,42171.0,{'Q0': 'no'},break,survey-text,0,42176,0.0-0.0
sub_25,37698.0,{'Q0': 'no'},break,survey-text,0,37704,0.0-0.0
sub_25,32865.0,{'Q0': 'No'},break,survey-text,0,32871,0.0-0.0
sub_25,20614.0,{'Q0': 'No'},break,survey-text,0,20620,0.0-0.0
sub_25,9097.0,{'Q0': 'No'},break,survey-text,0,9101,0.0-0.0
sub_26,8110.600000023842,{'Q0': ''},break,survey-text,0,8115,0.0-0.0
sub_26,10918.59999999404,{'Q0': ''},break,survey-text,0,10921,0.0-0.0
sub_26,33590.79999998212,{'Q0': ''},break,survey-text,0,33598,0.0-0.0
sub_26,16225.0,{'Q0': ''},break,survey-text,0,16227,0.0-0.0
sub_26,8917.90000000596,{'Q0': ''},break,survey-text,0,8920,0.0-0.0
sub_26,7347.4000000059605,{'Q0': ''},break,survey-text,0,7349,0.0-0.0
sub_26,6689.200000017881,{'Q0': ''},break,survey-text,0,6693,0.0-0.0
sub_26,3705.100000023842,{'Q0': ''},break,survey-text,0,3709,0.0-0.0
sub_26,3790.0999999940395,{'Q0': ''},break,survey-text,0,3793,0.0-0.0
sub_26,3962.5,{'Q0': ''},break,survey-text,0,3965,0.0-0.0
sub_27,10145.100000023842,{'Q0': 'no problems '},break,survey-text,0,10151,0.0-0.0
sub_27,314460.5,{'Q0': 'no problems'},break,survey-text,0,314466,0.0-0.0
sub_27,29031.19999998808,{'Q0': 'no problems'},break,survey-text,0,29040,0.0-0.0
sub_27,25408.400000035763,{'Q0': 'it would help to use different keys as i kept getting them mixed up'},break,survey-text,0,25412,0.0-0.0
sub_27,6209.0,{'Q0': ''},break,survey-text,0,6216,0.0-0.0
sub_27,8784.5,{'Q0': 'nop'},break,survey-text,0,8790,0.0-0.0
sub_27,10504.5,{'Q0': 'still mixing up the keys thats all'},break,survey-text,0,10508,0.0-0.0
sub_27,15920.199999988079,{'Q0': ''},break,survey-text,0,15926,0.0-0.0
sub_27,12633.5,{'Q0': 'no'},break,survey-text,0,12638,0.0-0.0
sub_27,7846.299999952316,{'Q0': 'no'},break,survey-text,0,7851,0.0-0.0
sub_28,24156.30000001192,{'Q0': 'no'},break,survey-text,0,24165,0.0-0.0
sub_28,4750.5999999940395,{'Q0': 'no'},break,survey-text,0,4757,0.0-0.0
sub_28,67062.19999998808,{'Q0': 'no'},break,survey-text,0,67072,0.0-0.0
sub_28,31339.59999999404,{'Q0': 'no'},break,survey-text,0,31346,0.0-0.0
sub_28,15489.0,{'Q0': 'no'},break,survey-text,0,15496,0.0-0.0
sub_28,12225.600000023842,{'Q0': 'no'},break,survey-text,0,12230,0.0-0.0
sub_28,17553.5,{'Q0': 'no'},break,survey-text,0,17562,0.0-0.0
sub_28,21988.30000001192,{'Q0': 'no'},break,survey-text,0,21997,0.0-0.0
sub_28,14765.0,{'Q0': 'no'},break,survey-text,0,14770,0.0-0.0
sub_28,10157.700000017881,{'Q0': 'no'},break,survey-text,0,10163,0.0-0.0
sub_29,10444.800000011921,{'Q0': 'no'},break,survey-text,0,10449,0.0-0.0
sub_29,5884.699999988079,{'Q0': 'no'},break,survey-text,0,5887,0.0-0.0
sub_29,21939.30000001192,{'Q0': 'no'},break,survey-text,0,21945,0.0-0.0
sub_29,14167.699999988079,{'Q0': 'no'},break,survey-text,0,14171,0.0-0.0
sub_29,12884.300000011921,{'Q0': 'no'},break,survey-text,0,12887,0.0-0.0
sub_29,14401.199999988079,{'Q0': 'no'},break,survey-text,0,14404,0.0-0.0
sub_29,8387.5,{'Q0': 'no'},break,survey-text,0,8390,0.0-0.0
sub_29,45582.10000002384,{'Q0': 'no'},break,survey-text,0,45595,0.0-0.0
sub_29,3722.600000023842,{'Q0': 'no'},break,survey-text,0,3725,0.0-0.0
sub_29,4128.0,{'Q0': 'no'},break,survey-text,0,4132,0.0-0.0
sub_30,10586.0,{'Q0': 'none'},break,survey-text,0,10590,0.0-0.0
sub_30,23162.19999998808,{'Q0': 'none'},break,survey-text,0,23164,0.0-0.0
sub_30,36987.30000001192,{'Q0': 'none'},break,survey-text,0,36994,0.0-0.0
sub_30,37480.30000001192,{'Q0': 'none '},break,survey-text,0,37485,0.0-0.0
sub_30,28681.0,{'Q0': 'none'},break,survey-text,0,28684,0.0-0.0
sub_30,23465.399999976158,{'Q0': 'none'},break,survey-text,0,23468,0.0-0.0
sub_30,19055.0,{'Q0': 'none'},break,survey-text,0,19059,0.0-0.0
sub_30,9148.0,{'Q0': 'none'},break,survey-text,0,9151,0.0-0.0
sub_30,9934.90000000596,{'Q0': 'none'},break,survey-text,0,9938,0.0-0.0
sub_30,6193.300000011921,{'Q0': 'none'},break,survey-text,0,6197,0.0-0.0
