prolific_id,rt,response,test_part,trial_type,trial_index,time_elapsed,internal_node_id,view_history
sub_01,103836.60000002384,{'Q0': ''},break,survey-text,0,103857,0.0-0.0,
sub_01,18478.799999952316,{'Q0': ''},break,survey-text,0,18489,0.0-0.0,
sub_01,51609.90000003576,{'Q0': ''},break,survey-text,0,51632,0.0-0.0,
sub_01,46737.89999997616,{'Q0': ''},break,survey-text,0,46750,0.0-0.0,
sub_01,14854.199999988079,{'Q0': ''},break,survey-text,0,14867,0.0-0.0,
sub_01,50844.30000001192,{'Q0': ''},break,survey-text,0,50854,0.0-0.0,
sub_01,9780.899999976158,{'Q0': ''},break,survey-text,0,9794,0.0-0.0,
sub_01,43564.40000003576,{'Q0': ''},break,survey-text,0,43581,0.0-0.0,
sub_01,13736.700000047684,{'Q0': ''},break,survey-text,0,13749,0.0-0.0,
sub_01,10994.300000011921,{'Q0': ''},break,survey-text,0,11007,0.0-0.0,
sub_02,9044.79999999702,{'Q0': ''},break,survey-text,0,9051,0.0-0.0,
sub_02,11811.0,{'Q0': ''},break,survey-text,0,11816,0.0-0.0,
sub_02,23740.60000000894,{'Q0': ''},break,survey-text,0,23749,0.0-0.0,
sub_02,30235.20000000298,{'Q0': ''},break,survey-text,0,30240,0.0-0.0,
sub_02,19548.5,{'Q0': ''},break,survey-text,0,19559,0.0-0.0,
sub_02,23171.20000000298,{'Q0': ''},break,survey-text,0,23180,0.0-0.0,
sub_02,21789.09999999404,{'Q0': ''},break,survey-text,0,21798,0.0-0.0,
sub_02,22457.40000000596,{'Q0': ''},break,survey-text,0,22466,0.0-0.0,
sub_02,7130.20000000298,{'Q0': ''},break,survey-text,0,7139,0.0-0.0,
sub_02,4774.70000000298,{'Q0': ''},break,survey-text,0,4800,0.0-0.0,
sub_03,15775.900000002235,{'Q0': 'no'},break,survey-text,0,15799,0.0-0.0,
sub_03,5546.10000000149,{'Q0': 'no'},break,survey-text,0,5560,0.0-0.0,
sub_03,40486.199999999255,{'Q0': 'no'},break,survey-text,0,40508,0.0-0.0,
sub_03,18596.699999999255,{'Q0': 'no'},break,survey-text,0,18614,0.0-0.0,
sub_03,19276.699999999255,{'Q0': 'no'},break,survey-text,0,19293,0.0-0.0,
sub_03,7036.300000000745,{'Q0': 'no'},break,survey-text,0,7053,0.0-0.0,
sub_03,9489.0,{'Q0': 'no'},break,survey-text,0,9502,0.0-0.0,
sub_03,18779.400000002235,{'Q0': 'no'},break,survey-text,0,18791,0.0-0.0,
sub_03,6082.900000002235,{'Q0': 'no'},break,survey-text,0,6097,0.0-0.0,
sub_03,10922.0,{'Q0': 'no'},break,survey-text,0,10937,0.0-0.0,
sub_04,6584.299999998882,{'Q0': ''},break,survey-text,0,6589,0.0-0.0,
sub_04,10392.299999998882,{'Q0': ''},break,survey-text,0,10396,0.0-0.0,
sub_04,18335.699999999255,{'Q0': ''},break,survey-text,0,18342,0.0-0.0,
sub_04,11529.699999999255,{'Q0': ''},break,survey-text,0,11539,0.0-0.0,
sub_04,10921.099999999627,{'Q0': ''},break,survey-text,0,10924,0.0-0.0,
sub_04,14340.10000000149,{'Q0': ''},break,survey-text,0,14343,0.0-0.0,
sub_04,6473.699999999255,{'Q0': ''},break,survey-text,0,6476,0.0-0.0,
sub_04,6146.5999999996275,{'Q0': ''},break,survey-text,0,6152,0.0-0.0,
sub_04,3091.300000000745,{'Q0': ''},break,survey-text,0,3093,0.0-0.0,
sub_04,4026.5,{'Q0': ''},break,survey-text,0,4029,0.0-0.0,
sub_05,16518.200000000186,{'Q0': 'No'},break,survey-text,0,16530,0.0-0.0,
sub_05,10785.799999999814,{'Q0': 'No'},break,survey-text,0,10796,0.0-0.0,
sub_05,95972.09999999963,{'Q0': 'No'},break,survey-text,0,95986,0.0-0.0,
sub_05,19112.099999999627,{'Q0': 'No'},break,survey-text,0,19123,0.0-0.0,
sub_05,8930.0,{'Q0': 'No'},break,survey-text,0,8940,0.0-0.0,
sub_05,7577.399999999441,{'Q0': 'No'},break,survey-text,0,7588,0.0-0.0,
sub_05,7465.799999999814,{'Q0': 'No'},break,survey-text,0,7477,0.0-0.0,
sub_05,19518.200000000186,{'Q0': 'No'},break,survey-text,0,19532,0.0-0.0,
sub_05,7461.799999999814,{'Q0': 'No'},break,survey-text,0,7472,0.0-0.0,
sub_05,4641.399999999441,{'Q0': 'No'},break,survey-text,0,4649,0.0-0.0,
sub_06,15964.799999952316,{'Q0': 'No'},break,survey-text,0,15970,0.0-0.0,
sub_06,12775.100000023842,{'Q0': ''},break,survey-text,0,12782,0.0-0.0,
sub_06,55566.799999952316,{'Q0': 'no'},break,survey-text,0,55576,0.0-0.0,
sub_06,69639.90000003576,{'Q0': 'no'},break,survey-text,0,69638,0.0-0.0,
sub_06,46910.90000003576,{'Q0': 'no'},break,survey-text,0,46914,0.0-0.0,
sub_06,48937.10000002384,{'Q0': 'no'},break,survey-text,0,48944,0.0-0.0,
sub_06,56259.09999996424,{'Q0': ''},break,survey-text,0,56265,0.0-0.0,
sub_06,26301.799999952316,{'Q0': ''},break,survey-text,0,26307,0.0-0.0,
sub_06,5249.800000011921,{'Q0': ''},break,survey-text,0,5253,0.0-0.0,
sub_06,3846.600000023842,{'Q0': ''},break,survey-text,0,3857,0.0-0.0,
sub_07,13081.399999856949,{'Q0': 'No'},break,survey-text,0,13091,0.0-0.0,
sub_07,17284.299999952316,{'Q0': 'No'},break,survey-text,0,17290,0.0-0.0,
sub_07,22300.89999985695,{'Q0': 'no'},break,survey-text,0,22312,0.0-0.0,
sub_07,46623.799999952316,{'Q0': 'No'},break,survey-text,0,46629,0.0-0.0,
sub_07,23077.599999904633,{'Q0': 'No'},break,survey-text,0,23083,0.0-0.0,
sub_07,14815.599999904633,{'Q0': 'No'},break,survey-text,0,14821,0.0-0.0,
sub_07,59241.799999952316,{'Q0': 'No\n'},break,survey-text,0,59248,0.0-0.0,
sub_07,41936.40000009537,{'Q0': 'No'},break,survey-text,0,41941,0.0-0.0,
sub_07,21419.5,{'Q0': 'No'},break,survey-text,0,21425,0.0-0.0,
sub_07,6629.300000190735,{'Q0': 'No'},break,survey-text,0,6634,0.0-0.0,
sub_08,22122.800000000745,{'Q0': 'no'},break,survey-text,0,22133,0.0-0.0,
sub_08,48195.199999999255,{'Q0': 'no'},break,survey-text,0,48206,0.0-0.0,
sub_08,25589.699999999255,{'Q0': 'no'},break,survey-text,0,25604,0.0-0.0,
sub_08,16016.0,{'Q0': 'no'},break,survey-text,0,16025,0.0-0.0,
sub_08,15797.699999999255,{'Q0': 'no'},break,survey-text,0,15808,0.0-0.0,
sub_08,9850.200000001118,{'Q0': 'no'},break,survey-text,0,9859,0.0-0.0,
sub_08,10391.299999998882,{'Q0': 'no'},break,survey-text,0,10401,0.0-0.0,
sub_08,12320.099999999627,{'Q0': 'no'},break,survey-text,0,12333,0.0-0.0,
sub_08,8450.699999999255,{'Q0': 'no'},break,survey-text,0,8460,0.0-0.0,
sub_08,4414.5999999996275,{'Q0': 'no'},break,survey-text,0,4424,0.0-0.0,
sub_09,15328.900000035763,{'Q0': 'no'},break,survey-text,0,15335,0.0-0.0,
sub_09,11657.600000023842,{'Q0': 'no'},break,survey-text,0,11661,0.0-0.0,
sub_09,41172.60000002384,{'Q0': 'no'},break,survey-text,0,41179,0.0-0.0,
sub_09,21041.0,{'Q0': ''},break,survey-text,0,21045,0.0-0.0,
sub_09,12728.5,{'Q0': 'no'},break,survey-text,0,12733,0.0-0.0,
sub_09,17101.399999976158,{'Q0': 'no'},break,survey-text,0,17107,0.0-0.0,
sub_09,16481.19999998808,{'Q0': 'no'},break,survey-text,0,16486,0.0-0.0,
sub_09,8135.100000023842,{'Q0': 'no'},break,survey-text,0,8140,0.0-0.0,
sub_09,5336.5,{'Q0': 'no'},break,survey-text,0,5341,0.0-0.0,
sub_09,10829.699999988079,{'Q0': 'no'},break,survey-text,0,10834,0.0-0.0,
sub_10,19720.10000000149,{'Q0': 'no'},break,survey-text,0,19725,0.0-0.0,
sub_10,5654.699999999255,{'Q0': 'no'},break,survey-text,0,5658,0.0-0.0,
sub_10,48993.699999999255,{'Q0': 'no'},break,survey-text,0,49000,0.0-0.0,
sub_10,17230.60000000149,{'Q0': 'no'},break,survey-text,0,17235,0.0-0.0,
sub_10,10520.0,{'Q0': 'No\n'},break,survey-text,0,10523,0.0-0.0,
sub_10,9232.0,{'Q0': 'No'},break,survey-text,0,9235,0.0-0.0,
sub_10,5244.29999999702,{'Q0': 'No'},break,survey-text,0,5248,0.0-0.0,
sub_10,12771.199999999255,{'Q0': 'No'},break,survey-text,0,12775,0.0-0.0,
sub_10,7397.300000000745,{'Q0': 'No'},break,survey-text,0,7401,0.0-0.0,
sub_10,5466.800000000745,{'Q0': 'No'},break,survey-text,0,5470,0.0-0.0,
sub_11,11693.799999952316,{'Q0': 'no'},break,survey-text,0,11739,0.0-0.0,
sub_11,6502.299999952316,{'Q0': 'no'},break,survey-text,0,6508,0.0-0.0,
sub_11,43187.0,{'Q0': 'no'},break,survey-text,0,43232,0.0-0.0,
sub_11,9532.899999856949,{'Q0': ''},break,survey-text,0,9545,0.0-0.0,
sub_11,7625.299999952316,{'Q0': 'no'},break,survey-text,0,7632,0.0-0.0,
sub_11,8522.0,{'Q0': ''},break,survey-text,0,8532,0.0-0.0,
sub_11,6348.700000047684,{'Q0': 'no'},break,survey-text,0,6359,0.0-0.0,
sub_11,6572.900000095367,{'Q0': 'no'},break,survey-text,0,6609,0.0-0.0,
sub_11,5462.299999952316,{'Q0': 'no'},break,survey-text,0,5468,0.0-0.0,
sub_11,5278.099999904633,{'Q0': 'no'},break,survey-text,0,5284,0.0-0.0,
sub_12,16832.899999976158,{'Q0': ''},break,survey-text,0,16841,0.0-0.0,
sub_12,11714.700000047684,{'Q0': ''},break,survey-text,0,11722,0.0-0.0,
sub_12,25092.099999904633,{'Q0': ''},break,survey-text,0,25102,0.0-0.0,
sub_12,20872.299999952316,{'Q0': ''},break,survey-text,0,20879,0.0-0.0,
sub_12,6286.0,{'Q0': ''},break,survey-text,0,6294,0.0-0.0,
sub_12,4194.399999976158,{'Q0': ''},break,survey-text,0,4202,0.0-0.0,
sub_12,7194.399999976158,{'Q0': ''},break,survey-text,0,7201,0.0-0.0,
sub_12,4333.5,{'Q0': ''},break,survey-text,0,4342,0.0-0.0,
sub_12,3997.5,{'Q0': ''},break,survey-text,0,4005,0.0-0.0,
sub_12,2094.4000000953674,{'Q0': ''},break,survey-text,0,2102,0.0-0.0,
sub_13,8392.199999809265,{'Q0': ''},break,survey-text,0,8399,0.0-0.0,
sub_13,14559.599999904633,{'Q0': 'No'},break,survey-text,0,14564,0.0-0.0,
sub_13,34742.5,{'Q0': 'No'},break,survey-text,0,34755,0.0-0.0,
sub_13,12767.099999904633,{'Q0': 'no'},break,survey-text,0,12771,0.0-0.0,
sub_13,9694.200000047684,{'Q0': ''},break,survey-text,0,9698,0.0-0.0,
sub_13,23665.400000095367,{'Q0': ''},break,survey-text,0,23670,0.0-0.0,
sub_13,7881.600000143051,{'Q0': ''},break,survey-text,0,7887,0.0-0.0,
sub_13,18713.0,{'Q0': 'No'},break,survey-text,0,18718,0.0-0.0,
sub_13,9010.0,{'Q0': 'no'},break,survey-text,0,9014,0.0-0.0,
sub_13,8056.900000095367,{'Q0': 'No'},break,survey-text,0,8061,0.0-0.0,
sub_14,32434.19999998808,{'Q0': ''},break,survey-text,0,32446,0.0-0.0,
sub_14,4019.0,{'Q0': ''},break,survey-text,0,4027,0.0-0.0,
sub_14,29501.69999998808,{'Q0': ''},break,survey-text,0,29508,0.0-0.0,
sub_14,15187.599999964237,{'Q0': ''},break,survey-text,0,15192,0.0-0.0,
sub_14,9713.0,{'Q0': ''},break,survey-text,0,9721,0.0-0.0,
sub_14,28155.100000023842,{'Q0': ''},break,survey-text,0,28159,0.0-0.0,
sub_14,16468.69999998808,{'Q0': ''},break,survey-text,0,16474,0.0-0.0,
sub_14,21412.799999952316,{'Q0': ''},break,survey-text,0,21417,0.0-0.0,
sub_14,13232.099999964237,{'Q0': ''},break,survey-text,0,13240,0.0-0.0,
sub_14,3111.2999999523163,{'Q0': ''},break,survey-text,0,3121,0.0-0.0,
sub_15,44758.10000002384,{'Q0': ''},break,survey-text,0,44765,0.0-0.0,
sub_15,82409.80000001192,{'Q0': ''},break,survey-text,0,82414,0.0-0.0,
sub_15,100806.59999996424,{'Q0': ''},break,survey-text,0,100813,0.0-0.0,
sub_15,36587.19999998808,{'Q0': ''},break,survey-text,0,36590,0.0-0.0,
sub_15,114424.60000002384,{'Q0': ''},break,survey-text,0,114429,0.0-0.0,
sub_15,59080.69999998808,{'Q0': ''},break,survey-text,0,59084,0.0-0.0,
sub_15,7567.300000011921,{'Q0': ''},break,survey-text,0,7570,0.0-0.0,
sub_15,11217.5,{'Q0': ''},break,survey-text,0,11229,0.0-0.0,
sub_15,7192.300000011921,{'Q0': ''},break,survey-text,0,7195,0.0-0.0,
sub_15,3468.800000011921,{'Q0': ''},break,survey-text,0,3477,0.0-0.0,
sub_16,13849.79999999702,{'Q0': 'no'},break,survey-text,0,13857,0.0-0.0,
sub_16,7923.80000000447,{'Q0': 'no'},break,survey-text,0,7930,0.0-0.0,
sub_16,33560.89999999851,{'Q0': 'no'},break,survey-text,0,33572,0.0-0.0,
sub_16,30193.39999999851,{'Q0': 'no'},break,survey-text,0,30200,0.0-0.0,
sub_16,19824.29999999702,{'Q0': 'no'},break,survey-text,0,19830,0.0-0.0,
sub_16,13585.30000000447,{'Q0': 'no'},break,survey-text,0,13591,0.0-0.0,
sub_16,8654.0,{'Q0': 'no'},break,survey-text,0,8660,0.0-0.0,
sub_16,13524.79999999702,{'Q0': 'no'},break,survey-text,0,13531,0.0-0.0,
sub_16,6942.89999999851,{'Q0': 'no'},break,survey-text,0,6948,0.0-0.0,
sub_16,8411.19999999553,{'Q0': 'no'},break,survey-text,0,8428,0.0-0.0,
sub_17,81636.19999998808,{'Q0': 'I felt some  lag in response to key presses'},break,survey-text,0,81644,0.0-0.0,
sub_17,16424.89999999106,{'Q0': 'Felt some key presses didnt register'},break,survey-text,0,16428,0.0-0.0,
sub_17,16509.70000000298,{'Q0': ''},break,survey-text,0,16519,0.0-0.0,
sub_17,9789.199999988079,{'Q0': ''},break,survey-text,0,9792,0.0-0.0,
sub_17,3340.4000000059605,{'Q0': ''},break,survey-text,0,3343,0.0-0.0,
sub_17,9033.60000000894,{'Q0': ''},break,survey-text,0,9042,0.0-0.0,
sub_17,7565.0,{'Q0': ''},break,survey-text,0,7568,0.0-0.0,
sub_17,7270.29999999702,{'Q0': ''},break,survey-text,0,7274,0.0-0.0,
sub_17,4438.100000008941,{'Q0': ''},break,survey-text,0,4446,0.0-0.0,
sub_17,1957.5999999940395,{'Q0': ''},break,survey-text,0,1960,0.0-0.0,
sub_18,12307.40000000596,{'Q0': ''},break,survey-text,0,12320,0.0-0.0,
sub_18,8775.79999999702,{'Q0': ''},break,survey-text,0,8787,0.0-0.0,
sub_18,17580.90000000596,{'Q0': ''},break,survey-text,0,17597,0.0-0.0,
sub_18,68574.40000000596,{'Q0': ''},break,survey-text,0,68582,0.0-0.0,
sub_18,29004.40000000596,{'Q0': ''},break,survey-text,0,29015,0.0-0.0,
sub_18,44557.5,{'Q0': ''},break,survey-text,0,44599,0.0-0.0,
sub_18,52117.90000000596,{'Q0': ''},break,survey-text,0,52176,0.0-0.0,
sub_18,6850.79999999702,{'Q0': ''},break,survey-text,0,6934,0.0-0.0,
sub_18,6366.800000011921,{'Q0': ''},break,survey-text,0,6397,0.0-0.0,
sub_18,1893.7999999970198,{'Q0': ''},break,survey-text,0,1940,0.0-0.0,
sub_19,43791.69999999553,{'Q0': ''},break,survey-text,0,43802,0.0-0.0,
sub_19,26698.39999999851,{'Q0': ''},break,survey-text,0,26704,0.0-0.0,
sub_19,32859.5,{'Q0': ''},break,survey-text,0,32867,0.0-0.0,
sub_19,29499.5,{'Q0': ''},break,survey-text,0,29505,0.0-0.0,
sub_19,28576.5,{'Q0': ''},break,survey-text,0,28581,0.0-0.0,
sub_19,131444.1000000015,{'Q0': ''},break,survey-text,0,131450,0.0-0.0,
sub_19,14513.09999999404,{'Q0': ''},break,survey-text,0,14519,0.0-0.0,
sub_19,9873.09999999404,{'Q0': ''},break,survey-text,0,9879,0.0-0.0,
sub_19,15606.5,{'Q0': ''},break,survey-text,0,15611,0.0-0.0,
sub_19,21507.20000000298,{'Q0': ''},break,survey-text,0,21512,0.0-0.0,
sub_20,16185.099999964237,{'Q0': ''},break,survey-text,0,16197,0.0-0.0,
sub_20,10403.199999988079,{'Q0': ''},break,survey-text,0,10409,0.0-0.0,
sub_20,46978.09999996424,{'Q0': ''},break,survey-text,0,46995,0.0-0.0,
sub_20,20518.299999952316,{'Q0': ''},break,survey-text,0,20527,0.0-0.0,
sub_20,24773.799999952316,{'Q0': ''},break,survey-text,0,24779,0.0-0.0,
sub_20,30494.599999964237,{'Q0': ''},break,survey-text,0,30500,0.0-0.0,
sub_20,9148.200000047684,{'Q0': ''},break,survey-text,0,9155,0.0-0.0,
sub_20,15629.199999988079,{'Q0': ''},break,survey-text,0,15643,0.0-0.0,
sub_20,7078.399999976158,{'Q0': ''},break,survey-text,0,7083,0.0-0.0,
sub_20,5902.600000023842,{'Q0': ''},break,survey-text,0,5913,0.0-0.0,
sub_21,9813.599999999977,{'Q0': 'No'},break,survey-text,0,9818,0.0-0.0,
sub_21,8794.599999999977,{'Q0': 'No'},break,survey-text,0,8798,0.0-0.0,
sub_21,29274.099999999977,{'Q0': 'No'},break,survey-text,0,29294,0.0-0.0,
sub_21,13373.099999999977,{'Q0': 'No'},break,survey-text,0,13377,0.0-0.0,
sub_21,17124.79999999993,{'Q0': 'No'},break,survey-text,0,17128,0.0-0.0,
sub_21,7816.699999999953,{'Q0': 'No'},break,survey-text,0,7819,0.0-0.0,
sub_21,13836.399999999907,{'Q0': 'No'},break,survey-text,0,13837,0.0-0.0,
sub_21,13395.399999999907,{'Q0': 'No'},break,survey-text,0,13395,0.0-0.0,
sub_21,7214.899999999907,{'Q0': 'No'},break,survey-text,0,7218,0.0-0.0,
sub_21,5677.90000000014,{'Q0': 'No'},break,survey-text,0,5682,0.0-0.0,
sub_22,18509.599999999627,{'Q0': ''},break,survey-text,0,18539,0.0-0.0,
sub_22,6366.0,{'Q0': ''},break,survey-text,0,6388,0.0-0.0,
sub_22,56126.89999999991,{'Q0': ''},break,survey-text,0,56150,0.0-0.0,
sub_22,17231.099999999627,{'Q0': ''},break,survey-text,0,17249,0.0-0.0,
sub_22,8227.100000000093,{'Q0': ''},break,survey-text,0,8246,0.0-0.0,
sub_22,4098.699999999721,{'Q0': ''},break,survey-text,0,4118,0.0-0.0,
sub_22,5269.5,{'Q0': ''},break,survey-text,0,5288,0.0-0.0,
sub_22,8846.0,{'Q0': ''},break,survey-text,0,8866,0.0-0.0,
sub_22,4127.700000000186,{'Q0': ''},break,survey-text,0,4149,0.0-0.0,
sub_22,8222.599999999627,{'Q0': ''},break,survey-text,0,8240,0.0-0.0,
sub_23,10218.09999999404,{'Q0': ''},break,survey-text,0,10223,0.0-0.0,
sub_23,12467.5,{'Q0': ''},break,survey-text,0,12471,0.0-0.0,
sub_23,58177.19999998808,{'Q0': ''},break,survey-text,0,58184,0.0-0.0,
sub_23,21590.29999999702,{'Q0': ''},break,survey-text,0,21595,0.0-0.0,
sub_23,21810.10000000894,{'Q0': ''},break,survey-text,0,21813,0.0-0.0,
sub_23,18375.30000001192,{'Q0': ''},break,survey-text,0,18378,0.0-0.0,
sub_23,16593.89999999106,{'Q0': ''},break,survey-text,0,16597,0.0-0.0,
sub_23,28619.40000000596,{'Q0': ''},break,survey-text,0,28624,0.0-0.0,
sub_23,16727.0,{'Q0': ''},break,survey-text,0,16730,0.0-0.0,
sub_23,6314.100000008941,{'Q0': ''},break,survey-text,0,6318,0.0-0.0,
sub_24,17662.69999998808,{'Q0': 'N/A'},break,survey-text,0,17668,0.0-0.0,
sub_24,12606.200000047684,{'Q0': 'N/A'},break,survey-text,0,12610,0.0-0.0,
sub_24,58282.5,{'Q0': 'N/A'},break,survey-text,0,58292,0.0-0.0,
sub_24,20633.099999964237,{'Q0': 'N/A'},break,survey-text,0,20637,0.0-0.0,
sub_24,29751.5,{'Q0': 'N/A'},break,survey-text,0,29754,0.0-0.0,
sub_24,49672.30000001192,{'Q0': 'N/A'},break,survey-text,0,49676,0.0-0.0,
sub_24,11876.599999964237,{'Q0': 'N/A'},break,survey-text,0,11881,0.0-0.0,
sub_24,13778.699999988079,{'Q0': 'N/A'},break,survey-text,0,13782,0.0-0.0,
sub_24,8611.0,{'Q0': 'N/A'},break,survey-text,0,8615,0.0-0.0,
sub_24,7523.100000023842,{'Q0': 'N/A'},break,survey-text,0,7527,0.0-0.0,
sub_25,17646.0,{'Q0': 'no'},break,survey-text,0,17650,0.0-0.0,
sub_25,9067.0,{'Q0': 'no'},break,survey-text,0,9072,0.0-0.0,
sub_25,45402.0,{'Q0': 'No'},break,survey-text,0,45407,0.0-0.0,
sub_25,168509.0,"{'Q0': 'A practice round for this would have been good, it took some time for me to get my eye in.'}",break,survey-text,0,168514,0.0-0.0,
sub_25,33826.0,{'Q0': 'No'},break,survey-text,0,33831,0.0-0.0,
sub_25,42171.0,{'Q0': 'no'},break,survey-text,0,42176,0.0-0.0,
sub_25,37698.0,{'Q0': 'no'},break,survey-text,0,37704,0.0-0.0,
sub_25,32865.0,{'Q0': 'No'},break,survey-text,0,32871,0.0-0.0,
sub_25,20614.0,{'Q0': 'No'},break,survey-text,0,20620,0.0-0.0,
sub_25,9097.0,{'Q0': 'No'},break,survey-text,0,9101,0.0-0.0,
sub_26,8110.600000023842,{'Q0': ''},break,survey-text,0,8115,0.0-0.0,
sub_26,10918.59999999404,{'Q0': ''},break,survey-text,0,10921,0.0-0.0,
sub_26,33590.79999998212,{'Q0': ''},break,survey-text,0,33598,0.0-0.0,
sub_26,16225.0,{'Q0': ''},break,survey-text,0,16227,0.0-0.0,
sub_26,8917.90000000596,{'Q0': ''},break,survey-text,0,8920,0.0-0.0,
sub_26,7347.4000000059605,{'Q0': ''},break,survey-text,0,7349,0.0-0.0,
sub_26,6689.200000017881,{'Q0': ''},break,survey-text,0,6693,0.0-0.0,
sub_26,3705.100000023842,{'Q0': ''},break,survey-text,0,3709,0.0-0.0,
sub_26,3790.0999999940395,{'Q0': ''},break,survey-text,0,3793,0.0-0.0,
sub_26,3962.5,{'Q0': ''},break,survey-text,0,3965,0.0-0.0,
sub_27,10145.100000023842,{'Q0': 'no problems '},break,survey-text,0,10151,0.0-0.0,
sub_27,314460.5,{'Q0': 'no problems'},break,survey-text,0,314466,0.0-0.0,
sub_27,29031.19999998808,{'Q0': 'no problems'},break,survey-text,0,29040,0.0-0.0,
sub_27,25408.400000035763,{'Q0': 'it would help to use different keys as i kept getting them mixed up'},break,survey-text,0,25412,0.0-0.0,
sub_27,6209.0,{'Q0': ''},break,survey-text,0,6216,0.0-0.0,
sub_27,8784.5,{'Q0': 'nop'},break,survey-text,0,8790,0.0-0.0,
sub_27,10504.5,{'Q0': 'still mixing up the keys thats all'},break,survey-text,0,10508,0.0-0.0,
sub_27,15920.199999988079,{'Q0': ''},break,survey-text,0,15926,0.0-0.0,
sub_27,12633.5,{'Q0': 'no'},break,survey-text,0,12638,0.0-0.0,
sub_27,7846.299999952316,{'Q0': 'no'},break,survey-text,0,7851,0.0-0.0,
sub_28,24156.30000001192,{'Q0': 'no'},break,survey-text,0,24165,0.0-0.0,
sub_28,4750.5999999940395,{'Q0': 'no'},break,survey-text,0,4757,0.0-0.0,
sub_28,67062.19999998808,{'Q0': 'no'},break,survey-text,0,67072,0.0-0.0,
sub_28,31339.59999999404,{'Q0': 'no'},break,survey-text,0,31346,0.0-0.0,
sub_28,15489.0,{'Q0': 'no'},break,survey-text,0,15496,0.0-0.0,
sub_28,12225.600000023842,{'Q0': 'no'},break,survey-text,0,12230,0.0-0.0,
sub_28,17553.5,{'Q0': 'no'},break,survey-text,0,17562,0.0-0.0,
sub_28,21988.30000001192,{'Q0': 'no'},break,survey-text,0,21997,0.0-0.0,
sub_28,14765.0,{'Q0': 'no'},break,survey-text,0,14770,0.0-0.0,
sub_28,10157.700000017881,{'Q0': 'no'},break,survey-text,0,10163,0.0-0.0,
sub_29,10444.800000011921,{'Q0': 'no'},break,survey-text,0,10449,0.0-0.0,
sub_29,5884.699999988079,{'Q0': 'no'},break,survey-text,0,5887,0.0-0.0,
sub_29,21939.30000001192,{'Q0': 'no'},break,survey-text,0,21945,0.0-0.0,
sub_29,14167.699999988079,{'Q0': 'no'},break,survey-text,0,14171,0.0-0.0,
sub_29,12884.300000011921,{'Q0': 'no'},break,survey-text,0,12887,0.0-0.0,
sub_29,14401.199999988079,{'Q0': 'no'},break,survey-text,0,14404,0.0-0.0,
sub_29,8387.5,{'Q0': 'no'},break,survey-text,0,8390,0.0-0.0,
sub_29,45582.10000002384,{'Q0': 'no'},break,survey-text,0,45595,0.0-0.0,
sub_29,3722.600000023842,{'Q0': 'no'},break,survey-text,0,3725,0.0-0.0,
sub_29,4128.0,{'Q0': 'no'},break,survey-text,0,4132,0.0-0.0,
sub_30,10586.0,{'Q0': 'none'},break,survey-text,0,10590,0.0-0.0,
sub_30,23162.19999998808,{'Q0': 'none'},break,survey-text,0,23164,0.0-0.0,
sub_30,36987.30000001192,{'Q0': 'none'},break,survey-text,0,36994,0.0-0.0,
sub_30,37480.30000001192,{'Q0': 'none '},break,survey-text,0,37485,0.0-0.0,
sub_30,28681.0,{'Q0': 'none'},break,survey-text,0,28684,0.0-0.0,
sub_30,23465.399999976158,{'Q0': 'none'},break,survey-text,0,23468,0.0-0.0,
sub_30,19055.0,{'Q0': 'none'},break,survey-text,0,19059,0.0-0.0,
sub_30,9148.0,{'Q0': 'none'},break,survey-text,0,9151,0.0-0.0,
sub_30,9934.90000000596,{'Q0': 'none'},break,survey-text,0,9938,0.0-0.0,
sub_30,6193.300000011921,{'Q0': 'none'},break,survey-text,0,6197,0.0-0.0,
sub_31,11878.29999999702,{'Q0': 'no'},break,survey-text,0,11903,0.0-0.0,
sub_31,58399.5,{'Q0': 'no'},break,survey-text,0,58429,0.0-0.0,
sub_31,42465.80000001192,{'Q0': 'no'},break,survey-text,0,42499,0.0-0.0,
sub_31,4394.4000000059605,,,instructions,1,46895,0.0-1.0,"[{'page_index': 0, 'viewing_time': 2156.4000000059605}, {'page_index': 1, 'viewing_time': 2237.0999999940395}]"
sub_31,224010.09999999404,{'Q0': 'no'},break,survey-text,0,224034,0.0-0.0,
sub_31,78953.39999999106,{'Q0': 'no'},break,survey-text,0,78971,0.0-0.0,
sub_31,20302.40000000596,{'Q0': 'no'},break,survey-text,0,20320,0.0-0.0,
sub_31,10862.79999999702,{'Q0': 'no'},break,survey-text,0,10882,0.0-0.0,
sub_31,14929.699999988079,{'Q0': 'no'},break,survey-text,0,14954,0.0-0.0,
sub_31,3901.7000000029802,{'Q0': 'no'},break,survey-text,0,3921,0.0-0.0,
sub_31,12633.20000000298,{'Q0': 'no'},break,survey-text,0,12654,0.0-0.0,
sub_32,10288.200000047684,{'Q0': ''},break,survey-text,0,10304,0.0-0.0,
sub_32,16687.400000095367,{'Q0': ''},break,survey-text,0,16699,0.0-0.0,
sub_32,24069.299999952316,{'Q0': ''},break,survey-text,0,24084,0.0-0.0,
sub_32,22373.900000095367,,,instructions,1,46462,0.0-1.0,"[{'page_index': 0, 'viewing_time': 9653.5}, {'page_index': 1, 'viewing_time': 12717.600000143051}]"
sub_32,12362.700000047684,{'Q0': ''},break,survey-text,0,12375,0.0-0.0,
sub_32,15040.0,{'Q0': ''},break,survey-text,0,15056,0.0-0.0,
sub_32,27173.5,{'Q0': ''},break,survey-text,0,27185,0.0-0.0,
sub_32,62191.5,{'Q0': ''},break,survey-text,0,62201,0.0-0.0,
sub_32,18318.5,{'Q0': ''},break,survey-text,0,18330,0.0-0.0,
sub_32,6846.400000095367,{'Q0': ''},break,survey-text,0,6868,0.0-0.0,
sub_32,3077.7000000476837,{'Q0': ''},break,survey-text,0,3090,0.0-0.0,
sub_33,22731.0,{'Q0': 'none at all'},break,survey-text,0,22754,0.0-0.0,
sub_33,8554.0,{'Q0': 'none at all'},break,survey-text,0,8570,0.0-0.0,
sub_33,42133.0,{'Q0': 'none at all'},break,survey-text,0,42152,0.0-0.0,
sub_33,5013.0,,,instructions,1,47167,0.0-1.0,"[{'page_index': 0, 'viewing_time': 2012}, {'page_index': 1, 'viewing_time': 3000}]"
sub_33,9966.0,{'Q0': 'no none at all'},break,survey-text,0,9984,0.0-0.0,
sub_33,10455.0,{'Q0': 'no none at all'},break,survey-text,0,10473,0.0-0.0,
sub_33,7959.0,{'Q0': 'no none'},break,survey-text,0,7977,0.0-0.0,
sub_33,10689.0,{'Q0': 'no none'},break,survey-text,0,10704,0.0-0.0,
sub_33,12669.0,{'Q0': 'no none'},break,survey-text,0,12684,0.0-0.0,
sub_33,13588.0,{'Q0': 'no none'},break,survey-text,0,13607,0.0-0.0,
sub_33,8014.0,{'Q0': 'no none'},break,survey-text,0,8035,0.0-0.0,
sub_34,18698.40000000596,{'Q0': 'No - all good!'},break,survey-text,0,18702,0.0-0.0,
sub_34,9323.70000000298,{'Q0': 'All good'},break,survey-text,0,9326,0.0-0.0,
sub_34,45861.59999999404,{'Q0': 'All good.'},break,survey-text,0,45867,0.0-0.0,
sub_34,28968.20000000298,,,instructions,1,74836,0.0-1.0,"[{'page_index': 0, 'viewing_time': 17085.10000000894}, {'page_index': 1, 'viewing_time': 11882.59999999404}]"
sub_34,18545.89999999106,{'Q0': 'All good.'},break,survey-text,0,18549,0.0-0.0,
sub_34,68885.09999999404,"{'Q0': 'Yes. I could not see the last four or five images. It was all blank! Then a messaged of ""missed"", or something. '}",break,survey-text,0,68891,0.0-0.0,
sub_34,37404.20000000298,{'Q0': 'No. All good this time.'},break,survey-text,0,37406,0.0-0.0,
sub_34,14902.39999999106,{'Q0': 'All good!'},break,survey-text,0,14905,0.0-0.0,
sub_34,8975.39999999106,{'Q0': 'All good!'},break,survey-text,0,8982,0.0-0.0,
sub_34,6070.5,{'Q0': ''},break,survey-text,0,6073,0.0-0.0,
sub_34,6884.100000008941,{'Q0': 'No. All good.'},break,survey-text,0,6887,0.0-0.0,
sub_35,30065.69999998808,"{'Q0': 'No, everything went well!'}",break,survey-text,0,30076,0.0-0.0,
sub_35,19311.599999964237,{'Q0': 'Nope!'},break,survey-text,0,19318,0.0-0.0,
sub_35,46017.5,{'Q0': 'No'},break,survey-text,0,46039,0.0-0.0,
sub_35,38330.89999997616,,,instructions,1,84371,0.0-1.0,"[{'page_index': 0, 'viewing_time': 16403.69999998808}, {'page_index': 1, 'viewing_time': 21925.900000035763}]"
sub_35,29491.5,"{'Q0': 'No, all went well'}",break,survey-text,0,29502,0.0-0.0,
sub_35,18943.5,{'Q0': 'No'},break,survey-text,0,18952,0.0-0.0,
sub_35,31450.099999964237,{'Q0': 'Nope!'},break,survey-text,0,31460,0.0-0.0,
sub_35,15336.5,"{'Q0': 'No, all went well'}",break,survey-text,0,15339,0.0-0.0,
sub_35,23361.19999998808,{'Q0': 'Nope!'},break,survey-text,0,23365,0.0-0.0,
sub_35,12710.900000035763,"{'Q0': 'No, all went well'}",break,survey-text,0,12715,0.0-0.0,
sub_35,10823.800000011921,"{'Q0': 'No, everything went fine'}",break,survey-text,0,10828,0.0-0.0,
sub_36,36061.30000000447,{'Q0': ''},break,survey-text,0,36065,0.0-0.0,
sub_36,10085.0,{'Q0': ''},break,survey-text,0,10089,0.0-0.0,
sub_36,21793.0,{'Q0': ''},break,survey-text,0,21797,0.0-0.0,
sub_36,14957.39999999851,,,instructions,1,36756,0.0-1.0,"[{'page_index': 0, 'viewing_time': 5201.20000000298}, {'page_index': 1, 'viewing_time': 9754.60000000149}]"
sub_36,10426.89999999851,{'Q0': ''},break,survey-text,0,10430,0.0-0.0,
sub_36,4540.5,{'Q0': ''},break,survey-text,0,4544,0.0-0.0,
sub_36,7267.10000000149,{'Q0': ''},break,survey-text,0,7271,0.0-0.0,
sub_36,95125.0,{'Q0': ''},break,survey-text,0,95129,0.0-0.0,
sub_36,9286.19999999553,{'Q0': ''},break,survey-text,0,9290,0.0-0.0,
sub_36,3134.39999999851,{'Q0': ''},break,survey-text,0,3137,0.0-0.0,
sub_36,4652.79999999702,{'Q0': ''},break,survey-text,0,4656,0.0-0.0,
sub_37,32773.40000000596,{'Q0': ''},break,survey-text,0,32778,0.0-0.0,
sub_37,3578.699999988079,{'Q0': ''},break,survey-text,0,3581,0.0-0.0,
sub_37,34169.80000001192,{'Q0': ''},break,survey-text,0,34175,0.0-0.0,
sub_37,17988.0,,,instructions,1,52164,0.0-1.0,"[{'page_index': 0, 'viewing_time': 10641.90000000596}, {'page_index': 1, 'viewing_time': 7345.5999999940395}]"
sub_37,5749.399999991059,{'Q0': ''},break,survey-text,0,5752,0.0-0.0,
sub_37,24302.29999999702,{'Q0': ''},break,survey-text,0,24306,0.0-0.0,
sub_37,20034.70000000298,{'Q0': ''},break,survey-text,0,20038,0.0-0.0,
sub_37,18995.40000000596,{'Q0': ''},break,survey-text,0,18999,0.0-0.0,
sub_37,8789.89999999106,{'Q0': ''},break,survey-text,0,8794,0.0-0.0,
sub_37,5067.5999999940395,{'Q0': ''},break,survey-text,0,5072,0.0-0.0,
sub_37,3507.7000000029802,{'Q0': ''},break,survey-text,0,3511,0.0-0.0,
sub_38,4653.5,{'Q0': ''},break,survey-text,0,4661,0.0-0.0,
sub_38,11705.099999964237,{'Q0': ''},break,survey-text,0,11711,0.0-0.0,
sub_38,15417.300000011921,{'Q0': ''},break,survey-text,0,15428,0.0-0.0,
sub_38,31066.600000023842,,,instructions,1,46495,0.0-1.0,"[{'page_index': 0, 'viewing_time': 10240.300000011921}, {'page_index': 1, 'viewing_time': 20825.900000035763}]"
sub_38,14420.400000035763,{'Q0': ''},break,survey-text,0,14425,0.0-0.0,
sub_38,11519.5,{'Q0': ''},break,survey-text,0,11524,0.0-0.0,
sub_38,15320.399999976158,{'Q0': ''},break,survey-text,0,15325,0.0-0.0,
sub_38,11937.300000011921,{'Q0': ''},break,survey-text,0,11942,0.0-0.0,
sub_38,9477.899999976158,{'Q0': ''},break,survey-text,0,9482,0.0-0.0,
sub_38,6527.0,{'Q0': ''},break,survey-text,0,6531,0.0-0.0,
sub_38,2217.100000023842,{'Q0': ''},break,survey-text,0,2231,0.0-0.0,
sub_39,10230.199999988079,{'Q0': ''},break,survey-text,0,10240,0.0-0.0,
sub_39,9351.800000011921,{'Q0': ''},break,survey-text,0,9360,0.0-0.0,
sub_39,38418.39999997616,{'Q0': ''},break,survey-text,0,38449,0.0-0.0,
sub_39,38241.0,,,instructions,1,76692,0.0-1.0,"[{'page_index': 0, 'viewing_time': 18525.399999976158}, {'page_index': 1, 'viewing_time': 19714.19999998808}]"
sub_39,19417.599999964237,{'Q0': ''},break,survey-text,0,19424,0.0-0.0,
sub_39,12048.400000035763,{'Q0': ''},break,survey-text,0,12056,0.0-0.0,
sub_39,6414.800000011921,{'Q0': ''},break,survey-text,0,6421,0.0-0.0,
sub_39,4771.100000023842,{'Q0': ''},break,survey-text,0,4779,0.0-0.0,
sub_39,2582.0,{'Q0': ''},break,survey-text,0,2591,0.0-0.0,
sub_39,9524.800000011921,{'Q0': ''},break,survey-text,0,9532,0.0-0.0,
sub_39,5579.299999952316,{'Q0': ''},break,survey-text,0,5587,0.0-0.0,
sub_40,13234.600000023842,{'Q0': 'no'},break,survey-text,0,13238,0.0-0.0,
sub_40,7725.700000047684,{'Q0': ''},break,survey-text,0,7729,0.0-0.0,
sub_40,42414.19999998808,{'Q0': 'no\n'},break,survey-text,0,42430,0.0-0.0,
sub_40,58290.60000002384,,,instructions,1,100721,0.0-1.0,"[{'page_index': 0, 'viewing_time': 20886.80000001192}, {'page_index': 1, 'viewing_time': 37403.10000002384}]"
sub_40,18590.400000035763,{'Q0': 'no'},break,survey-text,0,18593,0.0-0.0,
sub_40,18701.80000001192,{'Q0': 'no'},break,survey-text,0,18705,0.0-0.0,
sub_40,7446.599999964237,{'Q0': 'no'},break,survey-text,0,7450,0.0-0.0,
sub_40,39244.59999996424,{'Q0': 'no'},break,survey-text,0,39247,0.0-0.0,
sub_40,18994.599999964237,{'Q0': 'no'},break,survey-text,0,19000,0.0-0.0,
sub_40,20738.599999964237,{'Q0': 'no'},break,survey-text,0,20741,0.0-0.0,
sub_40,7393.900000035763,{'Q0': 'no'},break,survey-text,0,7397,0.0-0.0,
sub_41,6754.599999964237,{'Q0': ''},break,survey-text,0,6765,0.0-0.0,
sub_41,3618.100000023842,{'Q0': ''},break,survey-text,0,3638,0.0-0.0,
sub_41,14049.900000035763,{'Q0': ''},break,survey-text,0,14065,0.0-0.0,
sub_41,6158.600000023842,,,instructions,1,20225,0.0-1.0,"[{'page_index': 0, 'viewing_time': 1694.300000011921}, {'page_index': 1, 'viewing_time': 4463.600000023842}]"
sub_41,4470.099999964237,{'Q0': ''},break,survey-text,0,4473,0.0-0.0,
sub_41,5609.5,{'Q0': ''},break,survey-text,0,5613,0.0-0.0,
sub_41,5731.600000023842,{'Q0': ''},break,survey-text,0,5735,0.0-0.0,
sub_41,3832.699999988079,{'Q0': ''},break,survey-text,0,3836,0.0-0.0,
sub_41,4646.5,{'Q0': ''},break,survey-text,0,4660,0.0-0.0,
sub_41,2829.800000011921,{'Q0': ''},break,survey-text,0,2833,0.0-0.0,
sub_41,2385.699999988079,{'Q0': ''},break,survey-text,0,2392,0.0-0.0,
sub_42,11083.699999999255,{'Q0': 'no'},break,survey-text,0,11103,0.0-0.0,
sub_42,8468.199999999255,{'Q0': 'no'},break,survey-text,0,8478,0.0-0.0,
sub_42,23527.200000001118,{'Q0': 'no'},break,survey-text,0,23543,0.0-0.0,
sub_42,16135.699999999255,,,instructions,1,39681,0.0-1.0,"[{'page_index': 0, 'viewing_time': 10329.199999999255}, {'page_index': 1, 'viewing_time': 5804.5}]"
sub_42,11991.099999999627,{'Q0': 'no'},break,survey-text,0,12001,0.0-0.0,
sub_42,12385.800000000745,{'Q0': 'no'},break,survey-text,0,12395,0.0-0.0,
sub_42,6235.5999999996275,{'Q0': 'no'},break,survey-text,0,6245,0.0-0.0,
sub_42,4681.0,{'Q0': 'no'},break,survey-text,0,4692,0.0-0.0,
sub_42,7893.5,{'Q0': 'no'},break,survey-text,0,7912,0.0-0.0,
sub_42,6787.5,{'Q0': 'no'},break,survey-text,0,6805,0.0-0.0,
sub_42,5268.5,{'Q0': 'no'},break,survey-text,0,5279,0.0-0.0,
sub_43,10143.300000000745,{'Q0': ''},break,survey-text,0,10147,0.0-0.0,
sub_43,4334.0,{'Q0': ''},break,survey-text,0,4336,0.0-0.0,
sub_43,17886.099999997765,{'Q0': ''},break,survey-text,0,17892,0.0-0.0,
sub_43,18614.10000000149,,,instructions,1,36506,0.0-1.0,"[{'page_index': 0, 'viewing_time': 10358.89999999851}, {'page_index': 1, 'viewing_time': 8254.800000000745}]"
sub_43,17433.800000000745,{'Q0': ''},break,survey-text,0,17437,0.0-0.0,
sub_43,88240.69999999925,{'Q0': ''},break,survey-text,0,88243,0.0-0.0,
sub_43,3213.39999999851,{'Q0': ''},break,survey-text,0,3216,0.0-0.0,
sub_43,48353.699999999255,{'Q0': ''},break,survey-text,0,48355,0.0-0.0,
sub_43,9324.5,{'Q0': ''},break,survey-text,0,9327,0.0-0.0,
sub_43,3727.199999999255,{'Q0': ''},break,survey-text,0,3730,0.0-0.0,
sub_43,3636.89999999851,{'Q0': ''},break,survey-text,0,3640,0.0-0.0,
sub_44,9991.79999999702,{'Q0': ''},break,survey-text,0,9998,0.0-0.0,
sub_44,12094.70000000298,{'Q0': ''},break,survey-text,0,12099,0.0-0.0,
sub_44,68674.39999999106,{'Q0': ''},break,survey-text,0,68683,0.0-0.0,
sub_44,21246.69999998808,,,instructions,1,89930,0.0-1.0,"[{'page_index': 0, 'viewing_time': 13025.39999999106}, {'page_index': 1, 'viewing_time': 8220.40000000596}]"
sub_44,17965.5,{'Q0': ''},break,survey-text,0,17969,0.0-0.0,
sub_44,9035.79999999702,{'Q0': ''},break,survey-text,0,9040,0.0-0.0,
sub_44,9482.40000000596,{'Q0': ''},break,survey-text,0,9487,0.0-0.0,
sub_44,6009.4000000059605,{'Q0': ''},break,survey-text,0,6014,0.0-0.0,
sub_44,12244.800000011921,{'Q0': ''},break,survey-text,0,12250,0.0-0.0,
sub_44,9698.5,{'Q0': ''},break,survey-text,0,9704,0.0-0.0,
sub_44,6120.5,{'Q0': ''},break,survey-text,0,6126,0.0-0.0,
sub_45,19519.5,{'Q0': 'a bit of slow loading of images'},break,survey-text,0,19544,0.0-0.0,
sub_45,6890.699999809265,{'Q0': ''},break,survey-text,0,6898,0.0-0.0,
sub_45,27023.5,{'Q0': ''},break,survey-text,0,27043,0.0-0.0,
sub_45,35810.700000047684,,,instructions,1,62856,0.0-1.0,"[{'page_index': 0, 'viewing_time': 17665.900000095367}, {'page_index': 1, 'viewing_time': 18143.299999952316}]"
sub_45,18486.200000047684,{'Q0': ''},break,survey-text,0,18493,0.0-0.0,
sub_45,7134.799999952316,{'Q0': ''},break,survey-text,0,7145,0.0-0.0,
sub_45,7200.900000095367,{'Q0': ''},break,survey-text,0,7212,0.0-0.0,
sub_45,7724.600000143051,{'Q0': ''},break,survey-text,0,7733,0.0-0.0,
sub_45,6175.799999952316,{'Q0': ''},break,survey-text,0,6185,0.0-0.0,
sub_45,2869.2999999523163,{'Q0': ''},break,survey-text,0,2876,0.0-0.0,
sub_45,2652.0,{'Q0': ''},break,survey-text,0,2661,0.0-0.0,
sub_46,9029.400000035763,{'Q0': ''},break,survey-text,0,9056,0.0-0.0,
sub_46,10312.300000011921,{'Q0': ''},break,survey-text,0,10339,0.0-0.0,
sub_46,37145.5,{'Q0': ''},break,survey-text,0,37175,0.0-0.0,
sub_46,9756.299999952316,,,instructions,1,46934,0.0-1.0,"[{'page_index': 0, 'viewing_time': 9598.599999964237}, {'page_index': 1, 'viewing_time': 155.10000002384186}]"
sub_46,23789.400000035763,{'Q0': ''},break,survey-text,0,23808,0.0-0.0,
sub_46,10252.800000011921,{'Q0': ''},break,survey-text,0,10273,0.0-0.0,
sub_46,20388.099999964237,{'Q0': ''},break,survey-text,0,20408,0.0-0.0,
sub_46,15001.100000023842,{'Q0': ''},break,survey-text,0,15019,0.0-0.0,
sub_46,12946.0,{'Q0': ''},break,survey-text,0,12965,0.0-0.0,
sub_46,4995.599999964237,{'Q0': ''},break,survey-text,0,5023,0.0-0.0,
sub_46,3724.899999976158,{'Q0': ''},break,survey-text,0,3747,0.0-0.0,
sub_47,10106.800000000745,{'Q0': ''},break,survey-text,0,10113,0.0-0.0,
sub_47,38008.40000000037,{'Q0': ''},break,survey-text,0,38013,0.0-0.0,
sub_47,149038.90000000037,{'Q0': ''},break,survey-text,0,149055,0.0-0.0,
sub_47,85695.09999999963,,,instructions,1,234752,0.0-1.0,"[{'page_index': 0, 'viewing_time': 6351.4000000003725}, {'page_index': 1, 'viewing_time': 79341.69999999925}]"
sub_47,492789.80000000075,{'Q0': ''},break,survey-text,0,492795,0.0-0.0,
sub_47,122966.09999999963,{'Q0': ''},break,survey-text,0,122972,0.0-0.0,
sub_47,129240.40000000037,{'Q0': ''},break,survey-text,0,129249,0.0-0.0,
sub_47,43404.800000000745,{'Q0': ''},break,survey-text,0,43414,0.0-0.0,
sub_47,46538.79999999702,{'Q0': ''},break,survey-text,0,46549,0.0-0.0,
sub_47,18024.60000000149,{'Q0': ''},break,survey-text,0,18031,0.0-0.0,
sub_47,6047.60000000149,{'Q0': ''},break,survey-text,0,6052,0.0-0.0,
sub_48,89149.0,{'Q0': 'No not at all'},break,survey-text,0,89164,0.0-0.0,
sub_48,30250.0,{'Q0': 'No not at all'},break,survey-text,0,30255,0.0-0.0,
sub_48,174834.89999985695,{'Q0': 'no not at all'},break,survey-text,0,174845,0.0-0.0,
sub_48,34337.0,,,instructions,1,209183,0.0-1.0,"[{'page_index': 0, 'viewing_time': 2827.7000000476837}, {'page_index': 1, 'viewing_time': 31508}]"
sub_48,18425.60000014305,{'Q0': 'no'},break,survey-text,0,18431,0.0-0.0,
sub_48,30060.599999904633,{'Q0': 'No'},break,survey-text,0,30065,0.0-0.0,
sub_48,89004.20000004768,{'Q0': 'No'},break,survey-text,0,89008,0.0-0.0,
sub_48,32303.599999904633,{'Q0': 'No'},break,survey-text,0,32309,0.0-0.0,
sub_48,577223.4000000954,{'Q0': 'No'},break,survey-text,0,577227,0.0-0.0,
sub_48,64020.300000190735,{'Q0': 'no'},break,survey-text,0,64026,0.0-0.0,
sub_48,6026.200000047684,{'Q0': 'no'},break,survey-text,0,6032,0.0-0.0,
sub_49,23547.299999999814,{'Q0': 'no'},break,survey-text,0,23553,0.0-0.0,
sub_49,12218.700000000186,{'Q0': 'no'},break,survey-text,0,12222,0.0-0.0,
sub_49,43397.0,{'Q0': 'no'},break,survey-text,0,43403,0.0-0.0,
sub_49,30766.299999999814,,,instructions,1,74170,0.0-1.0,"[{'page_index': 0, 'viewing_time': 23670}, {'page_index': 1, 'viewing_time': 7095.899999999441}]"
sub_49,19824.799999999814,{'Q0': 'no'},break,survey-text,0,19828,0.0-0.0,
sub_49,11317.400000000373,{'Q0': 'no'},break,survey-text,0,11320,0.0-0.0,
sub_49,7363.700000000186,{'Q0': 'no'},break,survey-text,0,7367,0.0-0.0,
sub_49,9014.099999999627,{'Q0': 'no'},break,survey-text,0,9017,0.0-0.0,
sub_49,6391.5,{'Q0': 'no'},break,survey-text,0,6395,0.0-0.0,
sub_49,6412.799999999814,{'Q0': 'no'},break,survey-text,0,6416,0.0-0.0,
sub_49,4369.799999999814,{'Q0': 'no'},break,survey-text,0,4373,0.0-0.0,
sub_50,22378.5,{'Q0': 'None'},break,survey-text,0,22384,0.0-0.0,
sub_50,14418.10000000894,{'Q0': 'None'},break,survey-text,0,14420,0.0-0.0,
sub_50,101434.90000000596,{'Q0': 'None'},break,survey-text,0,101440,0.0-0.0,
sub_50,40857.59999999404,,,instructions,1,142298,0.0-1.0,"[{'page_index': 0, 'viewing_time': 17441.59999999404}, {'page_index': 1, 'viewing_time': 23415}]"
sub_50,29168.79999999702,{'Q0': 'None'},break,survey-text,0,29172,0.0-0.0,
sub_50,41322.29999999702,{'Q0': 'None'},break,survey-text,0,41325,0.0-0.0,
sub_50,31086.40000000596,{'Q0': 'None'},break,survey-text,0,31089,0.0-0.0,
sub_50,60223.29999999702,{'Q0': 'None'},break,survey-text,0,60226,0.0-0.0,
sub_50,82866.5,{'Q0': 'None'},break,survey-text,0,82870,0.0-0.0,
sub_50,43446.0,{'Q0': 'None'},break,survey-text,0,43448,0.0-0.0,
sub_50,19623.5,{'Q0': 'None'},break,survey-text,0,19627,0.0-0.0,
sub_51,14084.899999976158,{'Q0': 'no'},break,survey-text,0,14091,0.0-0.0,
sub_51,8625.699999988079,{'Q0': 'no'},break,survey-text,0,8632,0.0-0.0,
sub_51,51691.10000002384,{'Q0': 'no'},break,survey-text,0,51697,0.0-0.0,
sub_51,341045.39999997616,,,instructions,1,392736,0.0-1.0,"[{'page_index': 0, 'viewing_time': 6642.800000011921}, {'page_index': 1, 'viewing_time': 334401.09999996424}]"
sub_51,40055.0,{'Q0': 'no'},break,survey-text,0,40060,0.0-0.0,
sub_51,8680.600000023842,{'Q0': 'no\n'},break,survey-text,0,8686,0.0-0.0,
sub_51,10206.800000011921,{'Q0': 'no'},break,survey-text,0,10213,0.0-0.0,
sub_51,17628.399999976158,{'Q0': 'no'},break,survey-text,0,17634,0.0-0.0,
sub_51,86923.5,{'Q0': 'no'},break,survey-text,0,86947,0.0-0.0,
sub_51,8421.100000023842,{'Q0': 'no'},break,survey-text,0,8427,0.0-0.0,
sub_51,8556.199999988079,{'Q0': 'no'},break,survey-text,0,8562,0.0-0.0,
sub_52,12757.79999999702,{'Q0': 'no'},break,survey-text,0,12766,0.0-0.0,
sub_52,8263.0,{'Q0': 'no'},break,survey-text,0,8270,0.0-0.0,
sub_52,38085.60000000894,{'Q0': 'no'},break,survey-text,0,38099,0.0-0.0,
sub_52,31915.5,,,instructions,1,70016,0.0-1.0,"[{'page_index': 0, 'viewing_time': 14433.10000000894}, {'page_index': 1, 'viewing_time': 17481.09999999404}]"
sub_52,19778.79999999702,{'Q0': 'no'},break,survey-text,0,19786,0.0-0.0,
sub_52,17614.0,{'Q0': 'no'},break,survey-text,0,17620,0.0-0.0,
sub_52,22547.40000000596,{'Q0': 'no'},break,survey-text,0,22553,0.0-0.0,
sub_52,14207.60000000894,{'Q0': 'no'},break,survey-text,0,14214,0.0-0.0,
sub_52,14795.699999988079,{'Q0': 'no'},break,survey-text,0,14806,0.0-0.0,
sub_52,10162.70000000298,{'Q0': 'no'},break,survey-text,0,10169,0.0-0.0,
sub_52,9764.59999999404,{'Q0': 'no'},break,survey-text,0,9770,0.0-0.0,
sub_53,9790.5,{'Q0': 'no'},break,survey-text,0,9801,0.0-0.0,
sub_53,18722.59999999404,{'Q0': 'no'},break,survey-text,0,18730,0.0-0.0,
sub_53,29136.89999999106,{'Q0': 'no'},break,survey-text,0,29153,0.0-0.0,
sub_53,10802.20000000298,,,instructions,1,39957,0.0-1.0,"[{'page_index': 0, 'viewing_time': 4930.79999999702}, {'page_index': 1, 'viewing_time': 5870}]"
sub_53,56207.59999999404,{'Q0': 'no'},break,survey-text,0,56215,0.0-0.0,
sub_53,19945.30000001192,{'Q0': 'no'},break,survey-text,0,19955,0.0-0.0,
sub_53,8854.5,{'Q0': 'no'},break,survey-text,0,8864,0.0-0.0,
sub_53,19619.89999999106,{'Q0': 'no'},break,survey-text,0,19628,0.0-0.0,
sub_53,16930.5,{'Q0': 'no'},break,survey-text,0,16937,0.0-0.0,
sub_53,21032.5,{'Q0': 'no'},break,survey-text,0,21039,0.0-0.0,
sub_53,10522.89999999106,{'Q0': 'no'},break,survey-text,0,10530,0.0-0.0,
sub_54,17490.599999904633,"{'Q0': 'No, everything seemed to be fine. '}",break,survey-text,0,17505,0.0-0.0,
sub_54,28662.200000047684,{'Q0': 'No technical difficulties. '},break,survey-text,0,28668,0.0-0.0,
sub_54,32771.90000009537,{'Q0': 'No. '},break,survey-text,0,32786,0.0-0.0,
sub_54,101791.40000009537,,,instructions,1,134579,0.0-1.0,"[{'page_index': 0, 'viewing_time': 13281}, {'page_index': 1, 'viewing_time': 88509.09999990463}]"
sub_54,16056.299999952316,{'Q0': 'No difficulties.'},break,survey-text,0,16066,0.0-0.0,
sub_54,14347.900000095367,{'Q0': 'None'},break,survey-text,0,14354,0.0-0.0,
sub_54,7553.700000047684,{'Q0': 'None'},break,survey-text,0,7560,0.0-0.0,
sub_54,33050.39999985695,{'Q0': 'No'},break,survey-text,0,33057,0.0-0.0,
sub_54,11026.900000095367,{'Q0': 'No'},break,survey-text,0,11031,0.0-0.0,
sub_54,8458.099999904633,{'Q0': 'No'},break,survey-text,0,8464,0.0-0.0,
sub_54,8033.800000190735,{'Q0': 'No'},break,survey-text,0,8041,0.0-0.0,
sub_55,21298.5,{'Q0': 'no'},break,survey-text,0,21315,0.0-0.0,
sub_55,11591.899999976158,{'Q0': 'no'},break,survey-text,0,11603,0.0-0.0,
sub_55,35879.199999928474,{'Q0': 'no'},break,survey-text,0,35905,0.0-0.0,
sub_55,33935.0,,,instructions,1,69843,0.0-1.0,"[{'page_index': 0, 'viewing_time': 12252.5}, {'page_index': 1, 'viewing_time': 21679.400000095367}]"
sub_55,37888.300000071526,{'Q0': 'no'},break,survey-text,0,37898,0.0-0.0,
sub_55,8064.599999904633,{'Q0': 'no'},break,survey-text,0,8073,0.0-0.0,
sub_55,18675.5,{'Q0': 'no'},break,survey-text,0,18684,0.0-0.0,
sub_55,7664.100000023842,{'Q0': 'no'},break,survey-text,0,7676,0.0-0.0,
sub_55,7722.199999928474,{'Q0': 'no'},break,survey-text,0,7736,0.0-0.0,
sub_55,8384.599999904633,{'Q0': 'no'},break,survey-text,0,8395,0.0-0.0,
sub_55,7815.299999952316,{'Q0': 'no'},break,survey-text,0,7838,0.0-0.0,
sub_56,18517.200000047684,{'Q0': ''},break,survey-text,0,18525,0.0-0.0,
sub_56,30772.299999952316,{'Q0': '  '},break,survey-text,0,30777,0.0-0.0,
sub_56,54581.30000001192,{'Q0': ' '},break,survey-text,0,54587,0.0-0.0,
sub_56,56810.90000003576,,,instructions,1,111398,0.0-1.0,"[{'page_index': 0, 'viewing_time': 15708.300000011921}, {'page_index': 1, 'viewing_time': 41102.19999998808}]"
sub_56,19072.5,{'Q0': ''},break,survey-text,0,19078,0.0-0.0,
sub_56,30558.200000047684,{'Q0': ''},break,survey-text,0,30563,0.0-0.0,
sub_56,55970.700000047684,{'Q0': ''},break,survey-text,0,55976,0.0-0.0,
sub_56,13978.5,{'Q0': ''},break,survey-text,0,13983,0.0-0.0,
sub_56,14632.600000023842,{'Q0': ''},break,survey-text,0,14639,0.0-0.0,
sub_56,4910.800000011921,{'Q0': ''},break,survey-text,0,4915,0.0-0.0,
sub_56,8381.399999976158,{'Q0': ''},break,survey-text,0,8387,0.0-0.0,
sub_57,64375.0,{'Q0': 'No problems evident'},break,survey-text,0,64379,0.0-0.0,
sub_57,28098.600000023842,{'Q0': ''},break,survey-text,0,28101,0.0-0.0,
sub_57,42493.700000047684,{'Q0': ''},break,survey-text,0,42499,0.0-0.0,
sub_57,41185.799999952316,,,instructions,1,83684,0.0-1.0,"[{'page_index': 0, 'viewing_time': 16588.399999976158}, {'page_index': 1, 'viewing_time': 24596.699999928474}]"
sub_57,35410.90000009537,{'Q0': '\n'},break,survey-text,0,35414,0.0-0.0,
sub_57,25895.799999952316,{'Q0': ''},break,survey-text,0,25898,0.0-0.0,
sub_57,17750.699999928474,{'Q0': ''},break,survey-text,0,17754,0.0-0.0,
sub_57,14322.399999976158,{'Q0': ''},break,survey-text,0,14325,0.0-0.0,
sub_57,22850.600000023842,{'Q0': ''},break,survey-text,0,22854,0.0-0.0,
sub_57,16183.0,{'Q0': ''},break,survey-text,0,16186,0.0-0.0,
sub_57,6871.799999952316,{'Q0': ''},break,survey-text,0,6875,0.0-0.0,
