prolific_id,rt,response,test_part,trial_type,trial_index,time_elapsed,internal_node_id,view_history
sub_01,103836.60000002384,{'Q0': ''},break,survey-text,0,103857,0.0-0.0,
sub_01,18478.799999952316,{'Q0': ''},break,survey-text,0,18489,0.0-0.0,
sub_01,51609.90000003576,{'Q0': ''},break,survey-text,0,51632,0.0-0.0,
sub_01,46737.89999997616,{'Q0': ''},break,survey-text,0,46750,0.0-0.0,
sub_01,14854.199999988079,{'Q0': ''},break,survey-text,0,14867,0.0-0.0,
sub_01,50844.30000001192,{'Q0': ''},break,survey-text,0,50854,0.0-0.0,
sub_01,9780.899999976158,{'Q0': ''},break,survey-text,0,9794,0.0-0.0,
sub_01,43564.40000003576,{'Q0': ''},break,survey-text,0,43581,0.0-0.0,
sub_01,13736.700000047684,{'Q0': ''},break,survey-text,0,13749,0.0-0.0,
sub_01,10994.300000011921,{'Q0': ''},break,survey-text,0,11007,0.0-0.0,
sub_02,9044.79999999702,{'Q0': ''},break,survey-text,0,9051,0.0-0.0,
sub_02,11811.0,{'Q0': ''},break,survey-text,0,11816,0.0-0.0,
sub_02,23740.60000000894,{'Q0': ''},break,survey-text,0,23749,0.0-0.0,
sub_02,30235.20000000298,{'Q0': ''},break,survey-text,0,30240,0.0-0.0,
sub_02,19548.5,{'Q0': ''},break,survey-text,0,19559,0.0-0.0,
sub_02,23171.20000000298,{'Q0': ''},break,survey-text,0,23180,0.0-0.0,
sub_02,21789.09999999404,{'Q0': ''},break,survey-text,0,21798,0.0-0.0,
sub_02,22457.40000000596,{'Q0': ''},break,survey-text,0,22466,0.0-0.0,
sub_02,7130.20000000298,{'Q0': ''},break,survey-text,0,7139,0.0-0.0,
sub_02,4774.70000000298,{'Q0': ''},break,survey-text,0,4800,0.0-0.0,
sub_03,15775.900000002235,{'Q0': 'no'},break,survey-text,0,15799,0.0-0.0,
sub_03,5546.10000000149,{'Q0': 'no'},break,survey-text,0,5560,0.0-0.0,
sub_03,40486.199999999255,{'Q0': 'no'},break,survey-text,0,40508,0.0-0.0,
sub_03,18596.699999999255,{'Q0': 'no'},break,survey-text,0,18614,0.0-0.0,
sub_03,19276.699999999255,{'Q0': 'no'},break,survey-text,0,19293,0.0-0.0,
sub_03,7036.300000000745,{'Q0': 'no'},break,survey-text,0,7053,0.0-0.0,
sub_03,9489.0,{'Q0': 'no'},break,survey-text,0,9502,0.0-0.0,
sub_03,18779.400000002235,{'Q0': 'no'},break,survey-text,0,18791,0.0-0.0,
sub_03,6082.900000002235,{'Q0': 'no'},break,survey-text,0,6097,0.0-0.0,
sub_03,10922.0,{'Q0': 'no'},break,survey-text,0,10937,0.0-0.0,
sub_04,6584.299999998882,{'Q0': ''},break,survey-text,0,6589,0.0-0.0,
sub_04,10392.299999998882,{'Q0': ''},break,survey-text,0,10396,0.0-0.0,
sub_04,18335.699999999255,{'Q0': ''},break,survey-text,0,18342,0.0-0.0,
sub_04,11529.699999999255,{'Q0': ''},break,survey-text,0,11539,0.0-0.0,
sub_04,10921.099999999627,{'Q0': ''},break,survey-text,0,10924,0.0-0.0,
sub_04,14340.10000000149,{'Q0': ''},break,survey-text,0,14343,0.0-0.0,
sub_04,6473.699999999255,{'Q0': ''},break,survey-text,0,6476,0.0-0.0,
sub_04,6146.5999999996275,{'Q0': ''},break,survey-text,0,6152,0.0-0.0,
sub_04,3091.300000000745,{'Q0': ''},break,survey-text,0,3093,0.0-0.0,
sub_04,4026.5,{'Q0': ''},break,survey-text,0,4029,0.0-0.0,
sub_05,16518.200000000186,{'Q0': 'No'},break,survey-text,0,16530,0.0-0.0,
sub_05,10785.799999999814,{'Q0': 'No'},break,survey-text,0,10796,0.0-0.0,
sub_05,95972.09999999963,{'Q0': 'No'},break,survey-text,0,95986,0.0-0.0,
sub_05,19112.099999999627,{'Q0': 'No'},break,survey-text,0,19123,0.0-0.0,
sub_05,8930.0,{'Q0': 'No'},break,survey-text,0,8940,0.0-0.0,
sub_05,7577.399999999441,{'Q0': 'No'},break,survey-text,0,7588,0.0-0.0,
sub_05,7465.799999999814,{'Q0': 'No'},break,survey-text,0,7477,0.0-0.0,
sub_05,19518.200000000186,{'Q0': 'No'},break,survey-text,0,19532,0.0-0.0,
sub_05,7461.799999999814,{'Q0': 'No'},break,survey-text,0,7472,0.0-0.0,
sub_05,4641.399999999441,{'Q0': 'No'},break,survey-text,0,4649,0.0-0.0,
sub_06,15964.799999952316,{'Q0': 'No'},break,survey-text,0,15970,0.0-0.0,
sub_06,12775.100000023842,{'Q0': ''},break,survey-text,0,12782,0.0-0.0,
sub_06,55566.799999952316,{'Q0': 'no'},break,survey-text,0,55576,0.0-0.0,
sub_06,69639.90000003576,{'Q0': 'no'},break,survey-text,0,69638,0.0-0.0,
sub_06,46910.90000003576,{'Q0': 'no'},break,survey-text,0,46914,0.0-0.0,
sub_06,48937.10000002384,{'Q0': 'no'},break,survey-text,0,48944,0.0-0.0,
sub_06,56259.09999996424,{'Q0': ''},break,survey-text,0,56265,0.0-0.0,
sub_06,26301.799999952316,{'Q0': ''},break,survey-text,0,26307,0.0-0.0,
sub_06,5249.800000011921,{'Q0': ''},break,survey-text,0,5253,0.0-0.0,
sub_06,3846.600000023842,{'Q0': ''},break,survey-text,0,3857,0.0-0.0,
sub_07,13081.399999856949,{'Q0': 'No'},break,survey-text,0,13091,0.0-0.0,
sub_07,17284.299999952316,{'Q0': 'No'},break,survey-text,0,17290,0.0-0.0,
sub_07,22300.89999985695,{'Q0': 'no'},break,survey-text,0,22312,0.0-0.0,
sub_07,46623.799999952316,{'Q0': 'No'},break,survey-text,0,46629,0.0-0.0,
sub_07,23077.599999904633,{'Q0': 'No'},break,survey-text,0,23083,0.0-0.0,
sub_07,14815.599999904633,{'Q0': 'No'},break,survey-text,0,14821,0.0-0.0,
sub_07,59241.799999952316,{'Q0': 'No\n'},break,survey-text,0,59248,0.0-0.0,
sub_07,41936.40000009537,{'Q0': 'No'},break,survey-text,0,41941,0.0-0.0,
sub_07,21419.5,{'Q0': 'No'},break,survey-text,0,21425,0.0-0.0,
sub_07,6629.300000190735,{'Q0': 'No'},break,survey-text,0,6634,0.0-0.0,
sub_08,22122.800000000745,{'Q0': 'no'},break,survey-text,0,22133,0.0-0.0,
sub_08,48195.199999999255,{'Q0': 'no'},break,survey-text,0,48206,0.0-0.0,
sub_08,25589.699999999255,{'Q0': 'no'},break,survey-text,0,25604,0.0-0.0,
sub_08,16016.0,{'Q0': 'no'},break,survey-text,0,16025,0.0-0.0,
sub_08,15797.699999999255,{'Q0': 'no'},break,survey-text,0,15808,0.0-0.0,
sub_08,9850.200000001118,{'Q0': 'no'},break,survey-text,0,9859,0.0-0.0,
sub_08,10391.299999998882,{'Q0': 'no'},break,survey-text,0,10401,0.0-0.0,
sub_08,12320.099999999627,{'Q0': 'no'},break,survey-text,0,12333,0.0-0.0,
sub_08,8450.699999999255,{'Q0': 'no'},break,survey-text,0,8460,0.0-0.0,
sub_08,4414.5999999996275,{'Q0': 'no'},break,survey-text,0,4424,0.0-0.0,
sub_09,15328.900000035763,{'Q0': 'no'},break,survey-text,0,15335,0.0-0.0,
sub_09,11657.600000023842,{'Q0': 'no'},break,survey-text,0,11661,0.0-0.0,
sub_09,41172.60000002384,{'Q0': 'no'},break,survey-text,0,41179,0.0-0.0,
sub_09,21041.0,{'Q0': ''},break,survey-text,0,21045,0.0-0.0,
sub_09,12728.5,{'Q0': 'no'},break,survey-text,0,12733,0.0-0.0,
sub_09,17101.399999976158,{'Q0': 'no'},break,survey-text,0,17107,0.0-0.0,
sub_09,16481.19999998808,{'Q0': 'no'},break,survey-text,0,16486,0.0-0.0,
sub_09,8135.100000023842,{'Q0': 'no'},break,survey-text,0,8140,0.0-0.0,
sub_09,5336.5,{'Q0': 'no'},break,survey-text,0,5341,0.0-0.0,
sub_09,10829.699999988079,{'Q0': 'no'},break,survey-text,0,10834,0.0-0.0,
sub_10,19720.10000000149,{'Q0': 'no'},break,survey-text,0,19725,0.0-0.0,
sub_10,5654.699999999255,{'Q0': 'no'},break,survey-text,0,5658,0.0-0.0,
sub_10,48993.699999999255,{'Q0': 'no'},break,survey-text,0,49000,0.0-0.0,
sub_10,17230.60000000149,{'Q0': 'no'},break,survey-text,0,17235,0.0-0.0,
sub_10,10520.0,{'Q0': 'No\n'},break,survey-text,0,10523,0.0-0.0,
sub_10,9232.0,{'Q0': 'No'},break,survey-text,0,9235,0.0-0.0,
sub_10,5244.29999999702,{'Q0': 'No'},break,survey-text,0,5248,0.0-0.0,
sub_10,12771.199999999255,{'Q0': 'No'},break,survey-text,0,12775,0.0-0.0,
sub_10,7397.300000000745,{'Q0': 'No'},break,survey-text,0,7401,0.0-0.0,
sub_10,5466.800000000745,{'Q0': 'No'},break,survey-text,0,5470,0.0-0.0,
sub_100,14239.90000000596,{'Q0': 'no'},break,survey-text,0,14256,0.0-0.0,
sub_100,7961.0,{'Q0': 'no'},break,survey-text,0,7972,0.0-0.0,
sub_100,34956.79999999702,{'Q0': 'no'},break,survey-text,0,34972,0.0-0.0,
sub_100,12952.5,,,instructions,1,47927,0.0-1.0,"[{'page_index': 0, 'viewing_time': 7720.0999999940395}, {'page_index': 1, 'viewing_time': 5229.4000000059605}]"
sub_100,24015.79999999702,{'Q0': 'no'},break,survey-text,0,24024,0.0-0.0,
sub_100,15768.29999999702,{'Q0': 'no'},break,survey-text,0,15780,0.0-0.0,
sub_100,10295.79999999702,{'Q0': 'no'},break,survey-text,0,10303,0.0-0.0,
sub_100,8395.699999988079,{'Q0': 'no'},break,survey-text,0,8405,0.0-0.0,
sub_100,4845.79999999702,{'Q0': 'no'},break,survey-text,0,4858,0.0-0.0,
sub_100,5981.5,{'Q0': 'no'},break,survey-text,0,5996,0.0-0.0,
sub_100,6122.699999988079,{'Q0': 'no'},break,survey-text,0,6132,0.0-0.0,
sub_101,7545.5,{'Q0': 'no'},break,survey-text,0,7573,0.0-0.0,
sub_101,8029.0,{'Q0': 'no'},break,survey-text,0,8050,0.0-0.0,
sub_101,26648.600000023842,{'Q0': 'no'},break,survey-text,0,26678,0.0-0.0,
sub_101,4491.799999952316,,,instructions,1,31171,0.0-1.0,"[{'page_index': 0, 'viewing_time': 2014.5999999642372}, {'page_index': 1, 'viewing_time': 2475.300000011921}]"
sub_101,9431.400000035763,{'Q0': ''},break,survey-text,0,9451,0.0-0.0,
sub_101,7861.099999964237,{'Q0': 'no'},break,survey-text,0,7889,0.0-0.0,
sub_101,4149.800000011921,{'Q0': ''},break,survey-text,0,4172,0.0-0.0,
sub_101,2311.600000023842,{'Q0': ''},break,survey-text,0,2338,0.0-0.0,
sub_101,4541.799999952316,{'Q0': ''},break,survey-text,0,4581,0.0-0.0,
sub_101,2522.899999976158,{'Q0': ''},break,survey-text,0,2541,0.0-0.0,
sub_101,1030.300000011921,{'Q0': ''},break,survey-text,0,1055,0.0-0.0,
sub_102,13230.600000023842,{'Q0': 'nothing'},break,survey-text,0,13234,0.0-0.0,
sub_102,8041.199999988079,{'Q0': 'nothing \n'},break,survey-text,0,8044,0.0-0.0,
sub_102,30196.900000035763,{'Q0': 'nothing'},break,survey-text,0,30218,0.0-0.0,
sub_102,5039.100000023842,,,instructions,1,35258,0.0-1.0,"[{'page_index': 0, 'viewing_time': 2718.5}, {'page_index': 1, 'viewing_time': 2320}]"
sub_102,16502.400000035763,{'Q0': 'nothing'},break,survey-text,0,16504,0.0-0.0,
sub_102,8521.100000023842,{'Q0': 'nothing'},break,survey-text,0,8523,0.0-0.0,
sub_102,16670.19999998808,{'Q0': 'nothing i noticed'},break,survey-text,0,16678,0.0-0.0,
sub_102,30763.0,{'Q0': 'nothing'},break,survey-text,0,30766,0.0-0.0,
sub_102,7507.099999964237,{'Q0': 'nothing'},break,survey-text,0,7512,0.0-0.0,
sub_102,5809.0,{'Q0': 'nothing'},break,survey-text,0,5816,0.0-0.0,
sub_102,4719.300000011921,{'Q0': 'nothing'},break,survey-text,0,4722,0.0-0.0,
sub_103,15105.700000047684,{'Q0': 'None'},break,survey-text,0,15110,0.0-0.0,
sub_103,23630.400000095367,{'Q0': 'None'},break,survey-text,0,23634,0.0-0.0,
sub_103,51505.200000047684,{'Q0': ''},break,survey-text,0,51511,0.0-0.0,
sub_103,38887.200000047684,,,instructions,1,90399,0.0-1.0,"[{'page_index': 0, 'viewing_time': 18605.599999904633}, {'page_index': 1, 'viewing_time': 20280.900000095367}]"
sub_103,13844.599999904633,{'Q0': ''},break,survey-text,0,13847,0.0-0.0,
sub_103,16911.39999985695,{'Q0': ''},break,survey-text,0,16915,0.0-0.0,
sub_103,12855.700000047684,{'Q0': ''},break,survey-text,0,12859,0.0-0.0,
sub_103,13929.299999952316,{'Q0': ''},break,survey-text,0,13933,0.0-0.0,
sub_103,16281.799999952316,{'Q0': ''},break,survey-text,0,16288,0.0-0.0,
sub_103,4717.299999952316,{'Q0': ''},break,survey-text,0,4721,0.0-0.0,
sub_103,3576.5,{'Q0': ''},break,survey-text,0,3589,0.0-0.0,
sub_104,69157.70000004768,{'Q0': 'Everything was perfect.'},break,survey-text,0,69163,0.0-0.0,
sub_104,25391.300000071526,{'Q0': 'all fine'},break,survey-text,0,25395,0.0-0.0,
sub_104,75852.39999997616,{'Q0': 'all ok'},break,survey-text,0,75858,0.0-0.0,
sub_104,69646.70000004768,,,instructions,1,145505,0.0-1.0,"[{'page_index': 0, 'viewing_time': 18718.200000047684}, {'page_index': 1, 'viewing_time': 50927.89999997616}]"
sub_104,67659.39999997616,{'Q0': 'all ok'},break,survey-text,0,67662,0.0-0.0,
sub_104,24105.700000047684,"{'Q0': ""all fine.  it's tricky though!""}",break,survey-text,0,24109,0.0-0.0,
sub_104,14029.100000023842,{'Q0': 'all ok'},break,survey-text,0,14031,0.0-0.0,
sub_104,12392.899999976158,{'Q0': 'all ok'},break,survey-text,0,12397,0.0-0.0,
sub_104,10633.700000047684,{'Q0': 'all fine'},break,survey-text,0,10637,0.0-0.0,
sub_104,8017.100000023842,{'Q0': 'all ok'},break,survey-text,0,8020,0.0-0.0,
sub_104,10437.800000071526,{'Q0': 'no problems'},break,survey-text,0,10441,0.0-0.0,
sub_105,11862.199999928474,{'Q0': ''},break,survey-text,0,11882,0.0-0.0,
sub_105,2605.399999976158,{'Q0': ''},break,survey-text,0,2609,0.0-0.0,
sub_105,55279.799999952316,{'Q0': ''},break,survey-text,0,55290,0.0-0.0,
sub_105,32642.5,,,instructions,1,87935,0.0-1.0,"[{'page_index': 0, 'viewing_time': 27024}, {'page_index': 1, 'viewing_time': 5617.799999952316}]"
sub_105,15128.399999976158,{'Q0': ''},break,survey-text,0,15142,0.0-0.0,
sub_105,6067.700000047684,{'Q0': ''},break,survey-text,0,6076,0.0-0.0,
sub_105,4818.100000023842,{'Q0': ''},break,survey-text,0,4826,0.0-0.0,
sub_105,2865.0,{'Q0': ''},break,survey-text,0,2868,0.0-0.0,
sub_105,7354.0,{'Q0': ''},break,survey-text,0,7364,0.0-0.0,
sub_105,2577.6999999284744,{'Q0': ''},break,survey-text,0,2587,0.0-0.0,
sub_105,4675.5,{'Q0': ''},break,survey-text,0,4685,0.0-0.0,
sub_106,113021.80000007153,{'Q0': 'no issues'},break,survey-text,0,113049,0.0-0.0,
sub_106,85112.79999995232,{'Q0': 'none'},break,survey-text,0,85125,0.0-0.0,
sub_106,120929.20000004768,{'Q0': 'none'},break,survey-text,0,120936,0.0-0.0,
sub_106,56032.40000009537,,,instructions,1,176968,0.0-1.0,"[{'page_index': 0, 'viewing_time': 53623.700000047684}, {'page_index': 1, 'viewing_time': 2400.100000023842}]"
sub_106,80299.60000002384,{'Q0': 'none'},break,survey-text,0,80335,0.0-0.0,
sub_106,134488.29999995232,{'Q0': 'none'},break,survey-text,0,134490,0.0-0.0,
sub_106,97585.10000002384,{'Q0': 'none'},break,survey-text,0,97590,0.0-0.0,
sub_106,84330.60000002384,{'Q0': 'none'},break,survey-text,0,84334,0.0-0.0,
sub_106,68312.29999995232,{'Q0': 'none'},break,survey-text,0,68325,0.0-0.0,
sub_106,54681.10000002384,{'Q0': 'none'},break,survey-text,0,54699,0.0-0.0,
sub_106,12976.0,{'Q0': 'none'},break,survey-text,0,12988,0.0-0.0,
sub_107,8975.5,{'Q0': ''},break,survey-text,0,8985,0.0-0.0,
sub_107,77699.59999999963,{'Q0': ''},break,survey-text,0,77705,0.0-0.0,
sub_107,28642.900000000373,{'Q0': 'no'},break,survey-text,0,28650,0.0-0.0,
sub_107,74046.79999999888,,,instructions,1,102699,0.0-1.0,"[{'page_index': 0, 'viewing_time': 56069.199999999255}, {'page_index': 1, 'viewing_time': 17976.599999999627}]"
sub_107,16309.0,{'Q0': 'no'},break,survey-text,0,16315,0.0-0.0,
sub_107,16841.0,{'Q0': 'no'},break,survey-text,0,16852,0.0-0.0,
sub_107,42363.0,{'Q0': ''},break,survey-text,0,42370,0.0-0.0,
sub_107,34980.29999999888,{'Q0': 'no'},break,survey-text,0,34988,0.0-0.0,
sub_107,6982.300000000745,{'Q0': ''},break,survey-text,0,6989,0.0-0.0,
sub_107,3788.5999999996275,{'Q0': ''},break,survey-text,0,3795,0.0-0.0,
sub_107,2720.89999999851,{'Q0': ''},break,survey-text,0,2727,0.0-0.0,
sub_108,11056.199999988079,{'Q0': 'No!'},break,survey-text,0,11072,0.0-0.0,
sub_108,17116.399999976158,{'Q0': 'No!'},break,survey-text,0,17124,0.0-0.0,
sub_108,29031.19999998808,{'Q0': 'No!'},break,survey-text,0,29046,0.0-0.0,
sub_108,67019.0,,,instructions,1,96068,0.0-1.0,"[{'page_index': 0, 'viewing_time': 11999.199999988079}, {'page_index': 1, 'viewing_time': 55015.60000002384}]"
sub_108,35500.09999996424,{'Q0': 'No!'},break,survey-text,0,35507,0.0-0.0,
sub_108,22187.899999976158,{'Q0': 'No!'},break,survey-text,0,22195,0.0-0.0,
sub_108,14927.300000011921,{'Q0': 'No!'},break,survey-text,0,14933,0.0-0.0,
sub_108,21048.399999976158,{'Q0': 'No!'},break,survey-text,0,21055,0.0-0.0,
sub_108,24922.600000023842,{'Q0': 'No!'},break,survey-text,0,24931,0.0-0.0,
sub_108,24511.599999964237,{'Q0': 'No!'},break,survey-text,0,24521,0.0-0.0,
sub_108,5514.100000023842,{'Q0': 'No!'},break,survey-text,0,5521,0.0-0.0,
sub_109,15892.800000011921,{'Q0': 'no'},break,survey-text,0,15914,0.0-0.0,
sub_109,8538.200000017881,{'Q0': 'no'},break,survey-text,0,8550,0.0-0.0,
sub_109,43803.90000000596,{'Q0': ''},break,survey-text,0,43847,0.0-0.0,
sub_109,43813.09999999404,,,instructions,1,87663,0.0-1.0,"[{'page_index': 0, 'viewing_time': 26076.59999999404}, {'page_index': 1, 'viewing_time': 17734.30000001192}]"
sub_109,18158.59999999404,{'Q0': 'no'},break,survey-text,0,18171,0.0-0.0,
sub_109,16500.5,{'Q0': ''},break,survey-text,0,16511,0.0-0.0,
sub_109,19795.100000023842,{'Q0': ''},break,survey-text,0,19807,0.0-0.0,
sub_109,18685.600000023842,{'Q0': ''},break,survey-text,0,18697,0.0-0.0,
sub_109,8893.800000011921,{'Q0': ''},break,survey-text,0,8905,0.0-0.0,
sub_109,6694.699999988079,{'Q0': ''},break,survey-text,0,6706,0.0-0.0,
sub_109,3680.0,{'Q0': ''},break,survey-text,0,3727,0.0-0.0,
sub_11,11693.799999952316,{'Q0': 'no'},break,survey-text,0,11739,0.0-0.0,
sub_11,6502.299999952316,{'Q0': 'no'},break,survey-text,0,6508,0.0-0.0,
sub_11,43187.0,{'Q0': 'no'},break,survey-text,0,43232,0.0-0.0,
sub_11,9532.899999856949,{'Q0': ''},break,survey-text,0,9545,0.0-0.0,
sub_11,7625.299999952316,{'Q0': 'no'},break,survey-text,0,7632,0.0-0.0,
sub_11,8522.0,{'Q0': ''},break,survey-text,0,8532,0.0-0.0,
sub_11,6348.700000047684,{'Q0': 'no'},break,survey-text,0,6359,0.0-0.0,
sub_11,6572.900000095367,{'Q0': 'no'},break,survey-text,0,6609,0.0-0.0,
sub_11,5462.299999952316,{'Q0': 'no'},break,survey-text,0,5468,0.0-0.0,
sub_11,5278.099999904633,{'Q0': 'no'},break,survey-text,0,5284,0.0-0.0,
sub_110,19954.0,{'Q0': 'no'},break,survey-text,0,19965,0.0-0.0,
sub_110,14368.0,{'Q0': 'no'},break,survey-text,0,14375,0.0-0.0,
sub_110,46586.099999997765,{'Q0': 'no'},break,survey-text,0,46596,0.0-0.0,
sub_110,53426.300000000745,,,instructions,1,100025,0.0-1.0,"[{'page_index': 0, 'viewing_time': 33077.699999999255}, {'page_index': 1, 'viewing_time': 20339.60000000149}]"
sub_110,26818.60000000149,{'Q0': 'no'},break,survey-text,0,26828,0.0-0.0,
sub_110,67035.69999999925,{'Q0': 'no'},break,survey-text,0,67047,0.0-0.0,
sub_110,6484.300000000745,{'Q0': 'no'},break,survey-text,0,6493,0.0-0.0,
sub_110,5673.20000000298,{'Q0': 'no'},break,survey-text,0,5683,0.0-0.0,
sub_110,19523.699999999255,{'Q0': 'no'},break,survey-text,0,19534,0.0-0.0,
sub_110,18652.599999997765,{'Q0': 'no'},break,survey-text,0,18663,0.0-0.0,
sub_110,8456.5,{'Q0': 'no'},break,survey-text,0,8467,0.0-0.0,
sub_111,16412.19999998808,{'Q0': 'No'},break,survey-text,0,16415,0.0-0.0,
sub_111,12052.79999999702,{'Q0': 'No'},break,survey-text,0,12054,0.0-0.0,
sub_111,20463.0,{'Q0': 'no'},break,survey-text,0,20466,0.0-0.0,
sub_111,20264.70000000298,,,instructions,1,40732,0.0-1.0,"[{'page_index': 0, 'viewing_time': 4012}, {'page_index': 1, 'viewing_time': 1806.8999999910593}, {'page_index': 0, 'viewing_time': 7411}, {'page_index': 1, 'viewing_time': 7034.20000000298}]"
sub_111,17662.39999999106,{'Q0': 'No'},break,survey-text,0,17664,0.0-0.0,
sub_111,29992.39999999106,{'Q0': 'No'},break,survey-text,0,29994,0.0-0.0,
sub_111,7587.9000000059605,{'Q0': 'No'},break,survey-text,0,7589,0.0-0.0,
sub_111,14250.29999999702,{'Q0': 'No'},break,survey-text,0,14252,0.0-0.0,
sub_111,22798.5,{'Q0': 'No'},break,survey-text,0,22801,0.0-0.0,
sub_111,11918.40000000596,{'Q0': 'No'},break,survey-text,0,11920,0.0-0.0,
sub_111,7061.800000011921,{'Q0': 'No'},break,survey-text,0,7064,0.0-0.0,
sub_112,11985.0,{'Q0': 'No'},break,survey-text,0,12030,0.0-0.0,
sub_112,15688.0,{'Q0': 'No'},break,survey-text,0,15708,0.0-0.0,
sub_112,35518.0,{'Q0': 'No'},break,survey-text,0,35544,0.0-0.0,
sub_112,46041.0,,,instructions,1,81589,0.0-1.0,"[{'page_index': 0, 'viewing_time': 13814}, {'page_index': 1, 'viewing_time': 32227}]"
sub_112,20121.0,{'Q0': 'No'},break,survey-text,0,20157,0.0-0.0,
sub_112,12812.0,{'Q0': 'No'},break,survey-text,0,12847,0.0-0.0,
sub_112,17462.0,{'Q0': 'No'},break,survey-text,0,17523,0.0-0.0,
sub_112,36598.0,{'Q0': 'No'},break,survey-text,0,36614,0.0-0.0,
sub_112,8261.0,{'Q0': 'No'},break,survey-text,0,8297,0.0-0.0,
sub_112,6405.0,{'Q0': 'No'},break,survey-text,0,6450,0.0-0.0,
sub_112,4893.0,{'Q0': 'No'},break,survey-text,0,4935,0.0-0.0,
sub_113,27313.099999999627,{'Q0': 'No.'},break,survey-text,0,27324,0.0-0.0,
sub_113,22106.599999999627,{'Q0': 'No.'},break,survey-text,0,22113,0.0-0.0,
sub_113,63866.40000000037,{'Q0': 'No.'},break,survey-text,0,63889,0.0-0.0,
sub_113,90116.90000000037,,,instructions,1,154011,0.0-1.0,"[{'page_index': 0, 'viewing_time': 36421.09999999963}, {'page_index': 1, 'viewing_time': 53692.40000000037}]"
sub_113,33875.5,{'Q0': 'No.'},break,survey-text,0,33887,0.0-0.0,
sub_113,20077.099999999627,{'Q0': 'No.'},break,survey-text,0,20084,0.0-0.0,
sub_113,18228.799999998882,{'Q0': 'No.'},break,survey-text,0,18237,0.0-0.0,
sub_113,18691.400000000373,{'Q0': 'No.'},break,survey-text,0,18701,0.0-0.0,
sub_113,38212.40000000037,{'Q0': 'No.'},break,survey-text,0,38220,0.0-0.0,
sub_113,18097.900000000373,{'Q0': 'No.'},break,survey-text,0,18105,0.0-0.0,
sub_113,12673.099999999627,{'Q0': 'No.'},break,survey-text,0,12691,0.0-0.0,
sub_114,24250.60000014305,{'Q0': 'slow loading'},break,survey-text,0,24261,0.0-0.0,
sub_114,7344.0,{'Q0': 'none'},break,survey-text,0,7350,0.0-0.0,
sub_114,48698.39999985695,{'Q0': 'no'},break,survey-text,0,48713,0.0-0.0,
sub_114,24229.5,,,instructions,1,72945,0.0-1.0,"[{'page_index': 0, 'viewing_time': 4746.200000047684}, {'page_index': 1, 'viewing_time': 19482}]"
sub_114,44207.5,{'Q0': 'yes wasnt too sure on the instructions to start with so slow at getting going'},break,survey-text,0,44214,0.0-0.0,
sub_114,39972.299999952316,{'Q0': 'just getting confused on the shapes a little'},break,survey-text,0,39980,0.0-0.0,
sub_114,24078.299999952316,{'Q0': 'no its getting easier'},break,survey-text,0,24086,0.0-0.0,
sub_114,26477.299999952316,"{'Q0': 'none, its pretty smooth'}",break,survey-text,0,26491,0.0-0.0,
sub_114,35716.39999985695,{'Q0': 'none i dont think so'},break,survey-text,0,35727,0.0-0.0,
sub_114,13514.0,{'Q0': 'none'},break,survey-text,0,13520,0.0-0.0,
sub_114,17167.799999952316,{'Q0': 'none whatsoever'},break,survey-text,0,17179,0.0-0.0,
sub_115,7459.0,{'Q0': 'No'},break,survey-text,0,7463,0.0-0.0,
sub_115,10894.899999976158,{'Q0': 'No'},break,survey-text,0,10898,0.0-0.0,
sub_115,29452.0,{'Q0': 'No'},break,survey-text,0,29458,0.0-0.0,
sub_115,17421.29999998212,,,instructions,1,46881,0.0-1.0,"[{'page_index': 0, 'viewing_time': 8425}, {'page_index': 1, 'viewing_time': 3248.2999999821186}, {'page_index': 0, 'viewing_time': 1578.0999999940395}, {'page_index': 1, 'viewing_time': 4168.5}]"
sub_115,18332.5,{'Q0': 'No'},break,survey-text,0,18335,0.0-0.0,
sub_115,21075.0,{'Q0': 'No'},break,survey-text,0,21078,0.0-0.0,
sub_115,20148.19999998808,{'Q0': 'No'},break,survey-text,0,20151,0.0-0.0,
sub_115,8924.200000017881,{'Q0': 'No'},break,survey-text,0,8929,0.0-0.0,
sub_115,12169.299999982119,{'Q0': 'No'},break,survey-text,0,12172,0.0-0.0,
sub_115,6888.700000017881,{'Q0': 'No'},break,survey-text,0,6892,0.0-0.0,
sub_115,7515.800000011921,{'Q0': 'No'},break,survey-text,0,7519,0.0-0.0,
sub_116,20778.0,{'Q0': ''},break,survey-text,0,20787,0.0-0.0,
sub_116,9047.0,{'Q0': ''},break,survey-text,0,9057,0.0-0.0,
sub_116,33446.0,{'Q0': ''},break,survey-text,0,33455,0.0-0.0,
sub_116,47473.0,,,instructions,1,80929,0.0-1.0,"[{'page_index': 0, 'viewing_time': 18700}, {'page_index': 1, 'viewing_time': 28773}]"
sub_116,22705.0,{'Q0': ''},break,survey-text,0,22718,0.0-0.0,
sub_116,13107.0,{'Q0': ''},break,survey-text,0,13114,0.0-0.0,
sub_116,15438.0,{'Q0': ''},break,survey-text,0,15448,0.0-0.0,
sub_116,8490.0,{'Q0': ''},break,survey-text,0,8498,0.0-0.0,
sub_116,13110.0,{'Q0': ''},break,survey-text,0,13120,0.0-0.0,
sub_116,7590.0,{'Q0': ''},break,survey-text,0,7598,0.0-0.0,
sub_116,4604.0,{'Q0': ''},break,survey-text,0,4621,0.0-0.0,
sub_117,31265.100000023842,{'Q0': 'Wasnt sure if keyboard input was being recorded so i missed one or two trying to see ! '},break,survey-text,0,31285,0.0-0.0,
sub_117,5982.100000023842,{'Q0': ''},break,survey-text,0,6003,0.0-0.0,
sub_117,21714.299999952316,{'Q0': ''},break,survey-text,0,21745,0.0-0.0,
sub_117,20090.399999976158,,,instructions,1,41835,0.0-1.0,"[{'page_index': 0, 'viewing_time': 7062.399999976158}, {'page_index': 1, 'viewing_time': 13027}]"
sub_117,10294.899999976158,{'Q0': ''},break,survey-text,0,10315,0.0-0.0,
sub_117,5503.899999976158,{'Q0': ''},break,survey-text,0,5511,0.0-0.0,
sub_117,17962.299999952316,{'Q0': ''},break,survey-text,0,17981,0.0-0.0,
sub_117,11694.100000023842,{'Q0': ''},break,survey-text,0,11718,0.0-0.0,
sub_117,5502.0,{'Q0': ''},break,survey-text,0,5540,0.0-0.0,
sub_117,3759.7999999523163,{'Q0': ''},break,survey-text,0,3781,0.0-0.0,
sub_117,3275.7999999523163,{'Q0': ''},break,survey-text,0,3299,0.0-0.0,
sub_118,24327.199999999255,"{'Q0': 'It was a little slow to load but I had no difficulties, it still worked fine'}",break,survey-text,0,24339,0.0-0.0,
sub_118,19706.60000000149,{'Q0': 'n/a'},break,survey-text,0,19714,0.0-0.0,
sub_118,17017.89999999851,{'Q0': ''},break,survey-text,0,17027,0.0-0.0,
sub_118,13599.10000000149,,,instructions,1,30628,0.0-1.0,"[{'page_index': 0, 'viewing_time': 8588.199999999255}, {'page_index': 1, 'viewing_time': 1890.800000000745}, {'page_index': 0, 'viewing_time': 1292.6000000014901}, {'page_index': 1, 'viewing_time': 1826.300000000745}]"
sub_118,15978.70000000298,{'Q0': ''},break,survey-text,0,15987,0.0-0.0,
sub_118,7723.39999999851,{'Q0': ''},break,survey-text,0,7734,0.0-0.0,
sub_118,3637.5,{'Q0': ''},break,survey-text,0,3644,0.0-0.0,
sub_118,10631.10000000149,{'Q0': ''},break,survey-text,0,10638,0.0-0.0,
sub_118,4754.199999999255,{'Q0': ''},break,survey-text,0,4764,0.0-0.0,
sub_118,5203.20000000298,{'Q0': ''},break,survey-text,0,5211,0.0-0.0,
sub_118,2187.300000000745,{'Q0': ''},break,survey-text,0,2195,0.0-0.0,
sub_119,5003.5,{'Q0': ''},break,survey-text,0,5007,0.0-0.0,
sub_119,3647.1999999955297,{'Q0': ''},break,survey-text,0,3649,0.0-0.0,
sub_119,27121.80000000447,{'Q0': ''},break,survey-text,0,27126,0.0-0.0,
sub_119,6082.5,,,instructions,1,33210,0.0-1.0,"[{'page_index': 0, 'viewing_time': 3596.10000000149}, {'page_index': 1, 'viewing_time': 2486}]"
sub_119,6814.89999999851,{'Q0': ''},break,survey-text,0,6817,0.0-0.0,
sub_119,12262.80000000447,{'Q0': ''},break,survey-text,0,12264,0.0-0.0,
sub_119,10641.39999999851,{'Q0': ''},break,survey-text,0,10643,0.0-0.0,
sub_119,1197.3999999985099,{'Q0': ''},break,survey-text,0,1200,0.0-0.0,
sub_119,9895.40000000596,{'Q0': ''},break,survey-text,0,9899,0.0-0.0,
sub_119,4913.70000000298,{'Q0': ''},break,survey-text,0,4920,0.0-0.0,
sub_119,1961.3999999985099,{'Q0': ''},break,survey-text,0,1964,0.0-0.0,
sub_12,16832.899999976158,{'Q0': ''},break,survey-text,0,16841,0.0-0.0,
sub_12,11714.700000047684,{'Q0': ''},break,survey-text,0,11722,0.0-0.0,
sub_12,25092.099999904633,{'Q0': ''},break,survey-text,0,25102,0.0-0.0,
sub_12,20872.299999952316,{'Q0': ''},break,survey-text,0,20879,0.0-0.0,
sub_12,6286.0,{'Q0': ''},break,survey-text,0,6294,0.0-0.0,
sub_12,4194.399999976158,{'Q0': ''},break,survey-text,0,4202,0.0-0.0,
sub_12,7194.399999976158,{'Q0': ''},break,survey-text,0,7201,0.0-0.0,
sub_12,4333.5,{'Q0': ''},break,survey-text,0,4342,0.0-0.0,
sub_12,3997.5,{'Q0': ''},break,survey-text,0,4005,0.0-0.0,
sub_12,2094.4000000953674,{'Q0': ''},break,survey-text,0,2102,0.0-0.0,
sub_120,34909.5,{'Q0': 'No'},break,survey-text,0,34916,0.0-0.0,
sub_120,9943.700000047684,{'Q0': ''},break,survey-text,0,9948,0.0-0.0,
sub_120,35606.89999997616,{'Q0': ''},break,survey-text,0,35614,0.0-0.0,
sub_120,15887.699999928474,,,instructions,1,51503,0.0-1.0,"[{'page_index': 0, 'viewing_time': 9695.100000023842}, {'page_index': 1, 'viewing_time': 6191.899999976158}]"
sub_120,6286.200000047684,{'Q0': ''},break,survey-text,0,6291,0.0-0.0,
sub_120,28683.199999928474,{'Q0': ''},break,survey-text,0,28687,0.0-0.0,
sub_120,11338.0,{'Q0': ''},break,survey-text,0,11342,0.0-0.0,
sub_120,26352.200000047684,{'Q0': ''},break,survey-text,0,26356,0.0-0.0,
sub_120,38509.200000047684,{'Q0': ''},break,survey-text,0,38517,0.0-0.0,
sub_120,9346.099999904633,{'Q0': ''},break,survey-text,0,9356,0.0-0.0,
sub_120,3370.7999999523163,{'Q0': ''},break,survey-text,0,3378,0.0-0.0,
sub_121,8921.700000047684,{'Q0': 'no'},break,survey-text,0,8929,0.0-0.0,
sub_121,5875.899999976158,{'Q0': ''},break,survey-text,0,5882,0.0-0.0,
sub_121,17972.600000023842,{'Q0': ''},break,survey-text,0,17982,0.0-0.0,
sub_121,92300.89999997616,,,instructions,1,110281,0.0-1.0,"[{'page_index': 0, 'viewing_time': 9797.199999928474}, {'page_index': 1, 'viewing_time': 82501.89999997616}]"
sub_121,13840.299999952316,{'Q0': ''},break,survey-text,0,13848,0.0-0.0,
sub_121,118728.19999992847,{'Q0': ''},break,survey-text,0,118731,0.0-0.0,
sub_121,53679.300000071526,{'Q0': ''},break,survey-text,0,53686,0.0-0.0,
sub_121,95626.5,{'Q0': ''},break,survey-text,0,95631,0.0-0.0,
sub_121,13800.900000095367,{'Q0': ''},break,survey-text,0,13810,0.0-0.0,
sub_121,3525.100000023842,{'Q0': ''},break,survey-text,0,3530,0.0-0.0,
sub_121,2212.1999999284744,{'Q0': ''},break,survey-text,0,2218,0.0-0.0,
sub_122,16408.70000001788,{'Q0': 'No'},break,survey-text,0,16430,0.0-0.0,
sub_122,22720.59999999404,{'Q0': 'No'},break,survey-text,0,22727,0.0-0.0,
sub_122,53949.30000001192,{'Q0': 'No'},break,survey-text,0,53961,0.0-0.0,
sub_122,235558.0,,,instructions,1,289520,0.0-1.0,"[{'page_index': 0, 'viewing_time': 45157.80000001192}, {'page_index': 1, 'viewing_time': 190398}]"
sub_122,76492.10000002384,{'Q0': 'No'},break,survey-text,0,76499,0.0-0.0,
sub_122,172333.5,{'Q0': 'No'},break,survey-text,0,172339,0.0-0.0,
sub_122,49529.0,{'Q0': 'No'},break,survey-text,0,49538,0.0-0.0,
sub_122,37114.90000000596,{'Q0': 'No'},break,survey-text,0,37119,0.0-0.0,
sub_122,80282.09999999404,{'Q0': 'No'},break,survey-text,0,80291,0.0-0.0,
sub_122,17332.59999999404,{'Q0': 'No'},break,survey-text,0,17340,0.0-0.0,
sub_122,9888.40000000596,{'Q0': 'No'},break,survey-text,0,9897,0.0-0.0,
sub_123,11044.299999952316,{'Q0': 'none'},break,survey-text,0,11051,0.0-0.0,
sub_123,4522.299999952316,{'Q0': 'none'},break,survey-text,0,4525,0.0-0.0,
sub_123,26289.5,{'Q0': 'none'},break,survey-text,0,26296,0.0-0.0,
sub_123,33354.700000047684,,,instructions,1,59652,0.0-1.0,"[{'page_index': 0, 'viewing_time': 7990.900000095367}, {'page_index': 1, 'viewing_time': 25363.200000047684}]"
sub_123,20676.599999904633,{'Q0': 'none'},break,survey-text,0,20678,0.0-0.0,
sub_123,5751.700000047684,{'Q0': 'none'},break,survey-text,0,5753,0.0-0.0,
sub_123,17142.900000095367,{'Q0': 'none'},break,survey-text,0,17147,0.0-0.0,
sub_123,13182.200000047684,{'Q0': '\nnone'},break,survey-text,0,13186,0.0-0.0,
sub_123,7901.600000143051,{'Q0': 'none'},break,survey-text,0,7906,0.0-0.0,
sub_123,9832.900000095367,{'Q0': 'none'},break,survey-text,0,9836,0.0-0.0,
sub_123,3323.5,{'Q0': 'none'},break,survey-text,0,3326,0.0-0.0,
sub_124,11811.70000000298,{'Q0': 'no issues'},break,survey-text,0,11820,0.0-0.0,
sub_124,4877.70000000298,{'Q0': 'no issues'},break,survey-text,0,4883,0.0-0.0,
sub_124,24739.0,{'Q0': ' no issues'},break,survey-text,0,24747,0.0-0.0,
sub_124,48119.60000000894,,,instructions,1,72867,0.0-1.0,"[{'page_index': 0, 'viewing_time': 33345.79999999702}, {'page_index': 1, 'viewing_time': 7417.4000000059605}, {'page_index': 0, 'viewing_time': 3173.4000000059605}, {'page_index': 1, 'viewing_time': 4181.899999991059}]"
sub_124,9981.60000000894,{'Q0': ''},break,survey-text,0,9990,0.0-0.0,
sub_124,3716.300000011921,{'Q0': ''},break,survey-text,0,3724,0.0-0.0,
sub_124,34248.79999999702,{'Q0': ''},break,survey-text,0,34255,0.0-0.0,
sub_124,2050.7000000029802,{'Q0': ''},break,survey-text,0,2055,0.0-0.0,
sub_124,8172.9000000059605,{'Q0': 'no issues'},break,survey-text,0,8179,0.0-0.0,
sub_124,4220.5,{'Q0': ''},break,survey-text,0,4226,0.0-0.0,
sub_124,6292.0,{'Q0': 'no issues'},break,survey-text,0,6298,0.0-0.0,
sub_125,29980.600000023842,{'Q0': 'no issues'},break,survey-text,0,29996,0.0-0.0,
sub_125,9851.0,{'Q0': 'no issues'},break,survey-text,0,9860,0.0-0.0,
sub_125,96985.10000002384,{'Q0': 'no issues'},break,survey-text,0,97009,0.0-0.0,
sub_125,62345.700000047684,,,instructions,1,159356,0.0-1.0,"[{'page_index': 0, 'viewing_time': 38552.300000071526}, {'page_index': 1, 'viewing_time': 23791.599999904633}]"
sub_125,46240.799999952316,{'Q0': 'no issues'},break,survey-text,0,46251,0.0-0.0,
sub_125,30531.600000023842,{'Q0': ''},break,survey-text,0,30541,0.0-0.0,
sub_125,34488.39999997616,{'Q0': 'no issues'},break,survey-text,0,34498,0.0-0.0,
sub_125,13464.299999952316,{'Q0': ''},break,survey-text,0,13473,0.0-0.0,
sub_125,11805.299999952316,{'Q0': 'no issues'},break,survey-text,0,11814,0.0-0.0,
sub_125,22840.600000023842,{'Q0': 'no issues'},break,survey-text,0,22849,0.0-0.0,
sub_125,6052.399999976158,{'Q0': 'no issues'},break,survey-text,0,6061,0.0-0.0,
sub_126,22491.0,{'Q0': 'no'},break,survey-text,0,22502,0.0-0.0,
sub_126,11299.400000000023,{'Q0': 'no'},break,survey-text,0,11303,0.0-0.0,
sub_126,73753.59999999998,{'Q0': 'no'},break,survey-text,0,73757,0.0-0.0,
sub_126,66114.90000000002,,,instructions,1,139872,0.0-1.0,"[{'page_index': 0, 'viewing_time': 30694.300000000047}, {'page_index': 1, 'viewing_time': 35419.79999999993}]"
sub_126,23391.400000000023,{'Q0': 'no'},break,survey-text,0,23396,0.0-0.0,
sub_126,46960.69999999995,{'Q0': 'no'},break,survey-text,0,46964,0.0-0.0,
sub_126,98538.29999999981,{'Q0': 'no'},break,survey-text,0,98542,0.0-0.0,
sub_126,30069.299999999814,{'Q0': 'no'},break,survey-text,0,30074,0.0-0.0,
sub_126,6700.799999999814,{'Q0': 'no'},break,survey-text,0,6705,0.0-0.0,
sub_126,6870.700000000186,{'Q0': 'no'},break,survey-text,0,6875,0.0-0.0,
sub_126,4578.199999999953,{'Q0': 'no'},break,survey-text,0,4584,0.0-0.0,
sub_127,16561.90000000596,{'Q0': 'No.'},break,survey-text,0,16574,0.0-0.0,
sub_127,13351.100000023842,{'Q0': 'No.'},break,survey-text,0,13361,0.0-0.0,
sub_127,39089.70000001788,{'Q0': 'No.'},break,survey-text,0,39106,0.0-0.0,
sub_127,32301.69999998808,,,instructions,1,71409,0.0-1.0,"[{'page_index': 0, 'viewing_time': 16464}, {'page_index': 1, 'viewing_time': 15836.40000000596}]"
sub_127,27716.0,{'Q0': 'No.'},break,survey-text,0,27729,0.0-0.0,
sub_127,11857.200000017881,{'Q0': 'No.'},break,survey-text,0,11866,0.0-0.0,
sub_127,8290.40000000596,{'Q0': 'No.'},break,survey-text,0,8300,0.0-0.0,
sub_127,7778.0999999940395,{'Q0': 'No.'},break,survey-text,0,7788,0.0-0.0,
sub_127,8680.799999982119,{'Q0': ''},break,survey-text,0,8692,0.0-0.0,
sub_127,9385.09999999404,{'Q0': 'No.'},break,survey-text,0,9394,0.0-0.0,
sub_127,10538.5,{'Q0': 'No.'},break,survey-text,0,10548,0.0-0.0,
sub_128,20150.199999999255,{'Q0': 'no'},break,survey-text,0,20154,0.0-0.0,
sub_128,13311.699999999255,{'Q0': 'no'},break,survey-text,0,13316,0.0-0.0,
sub_128,41158.70000000298,{'Q0': 'no'},break,survey-text,0,41165,0.0-0.0,
sub_128,86982.30000000075,,,instructions,1,128148,0.0-1.0,"[{'page_index': 0, 'viewing_time': 22438.599999997765}, {'page_index': 1, 'viewing_time': 64543.400000002235}]"
sub_128,46328.5,{'Q0': 'no'},break,survey-text,0,46332,0.0-0.0,
sub_128,24242.300000000745,{'Q0': 'no'},break,survey-text,0,24245,0.0-0.0,
sub_128,24449.5,{'Q0': ''},break,survey-text,0,24453,0.0-0.0,
sub_128,32589.099999997765,{'Q0': ''},break,survey-text,0,32593,0.0-0.0,
sub_128,22957.79999999702,{'Q0': ''},break,survey-text,0,22961,0.0-0.0,
sub_128,13001.39999999851,{'Q0': ''},break,survey-text,0,13005,0.0-0.0,
sub_128,8269.699999999255,{'Q0': ''},break,survey-text,0,8275,0.0-0.0,
sub_129,49502.20000000112,{'Q0': 'No'},break,survey-text,0,49528,0.0-0.0,
sub_129,27427.39999999851,{'Q0': 'No'},break,survey-text,0,27459,0.0-0.0,
sub_129,51393.79999999888,{'Q0': 'No'},break,survey-text,0,51418,0.0-0.0,
sub_129,49619.0,,,instructions,1,101041,0.0-1.0,"[{'page_index': 0, 'viewing_time': 20334.800000000745}, {'page_index': 1, 'viewing_time': 29280.5}]"
sub_129,37074.0,{'Q0': 'No'},break,survey-text,0,37109,0.0-0.0,
sub_129,32478.900000000373,{'Q0': 'No'},break,survey-text,0,32502,0.0-0.0,
sub_129,26989.599999999627,{'Q0': 'No'},break,survey-text,0,27010,0.0-0.0,
sub_129,18738.099999999627,{'Q0': 'No'},break,survey-text,0,18760,0.0-0.0,
sub_129,19016.199999999255,{'Q0': 'No'},break,survey-text,0,19037,0.0-0.0,
sub_129,13329.700000001118,{'Q0': 'No'},break,survey-text,0,13349,0.0-0.0,
sub_129,11453.099999999627,{'Q0': 'No'},break,survey-text,0,11472,0.0-0.0,
sub_13,8392.199999809265,{'Q0': ''},break,survey-text,0,8399,0.0-0.0,
sub_13,14559.599999904633,{'Q0': 'No'},break,survey-text,0,14564,0.0-0.0,
sub_13,34742.5,{'Q0': 'No'},break,survey-text,0,34755,0.0-0.0,
sub_13,12767.099999904633,{'Q0': 'no'},break,survey-text,0,12771,0.0-0.0,
sub_13,9694.200000047684,{'Q0': ''},break,survey-text,0,9698,0.0-0.0,
sub_13,23665.400000095367,{'Q0': ''},break,survey-text,0,23670,0.0-0.0,
sub_13,7881.600000143051,{'Q0': ''},break,survey-text,0,7887,0.0-0.0,
sub_13,18713.0,{'Q0': 'No'},break,survey-text,0,18718,0.0-0.0,
sub_13,9010.0,{'Q0': 'no'},break,survey-text,0,9014,0.0-0.0,
sub_13,8056.900000095367,{'Q0': 'No'},break,survey-text,0,8061,0.0-0.0,
sub_130,22382.5,{'Q0': 'No'},break,survey-text,0,22409,0.0-0.0,
sub_130,23564.0,{'Q0': 'No'},break,survey-text,0,23573,0.0-0.0,
sub_130,49175.5,{'Q0': 'No'},break,survey-text,0,49217,0.0-0.0,
sub_130,93092.30000000447,,,instructions,1,142313,0.0-1.0,"[{'page_index': 0, 'viewing_time': 33963.60000000149}, {'page_index': 1, 'viewing_time': 26797.80000000447}, {'page_index': 0, 'viewing_time': 2183.0999999940395}, {'page_index': 1, 'viewing_time': 24093.40000000596}, {'page_index': 0, 'viewing_time': 2210.5999999940395}, {'page_index': 1, 'viewing_time': 3842.8000000044703}]"
sub_130,57082.10000000149,{'Q0': 'The first few images do not register'},break,survey-text,0,57098,0.0-0.0,
sub_130,7256.20000000298,{'Q0': 'No'},break,survey-text,0,7264,0.0-0.0,
sub_130,21850.29999999702,{'Q0': 'No'},break,survey-text,0,21860,0.0-0.0,
sub_130,8651.80000000447,{'Q0': 'No'},break,survey-text,0,8661,0.0-0.0,
sub_130,17341.60000000149,{'Q0': 'No'},break,survey-text,0,17360,0.0-0.0,
sub_130,12669.5,{'Q0': 'No'},break,survey-text,0,12677,0.0-0.0,
sub_130,10199.90000000596,{'Q0': 'No'},break,survey-text,0,10210,0.0-0.0,
sub_131,11230.199999988079,{'Q0': 'None'},break,survey-text,0,11235,0.0-0.0,
sub_131,7471.900000035763,{'Q0': 'None'},break,survey-text,0,7476,0.0-0.0,
sub_131,39738.39999997616,{'Q0': 'None'},break,survey-text,0,39746,0.0-0.0,
sub_131,21131.5,,,instructions,1,60878,0.0-1.0,"[{'page_index': 0, 'viewing_time': 10413.199999988079}, {'page_index': 1, 'viewing_time': 10717.099999964237}]"
sub_131,5923.5,{'Q0': 'none'},break,survey-text,0,5927,0.0-0.0,
sub_131,64814.89999997616,"{'Q0': 'I caught the tab button mid trial and it kept saying missed when i was answering at which point i had realised what i had done so i had to fix it, sorry about that.'}",break,survey-text,0,64818,0.0-0.0,
sub_131,4493.699999988079,{'Q0': 'None'},break,survey-text,0,4497,0.0-0.0,
sub_131,8245.399999976158,{'Q0': 'none'},break,survey-text,0,8249,0.0-0.0,
sub_131,17073.19999998808,{'Q0': 'none'},break,survey-text,0,17083,0.0-0.0,
sub_131,7595.5,{'Q0': 'None'},break,survey-text,0,7599,0.0-0.0,
sub_131,8174.399999976158,{'Q0': 'none'},break,survey-text,0,8182,0.0-0.0,
sub_132,17837.600000023842,{'Q0': ''},break,survey-text,0,17843,0.0-0.0,
sub_132,38290.799999952316,{'Q0': ''},break,survey-text,0,38294,0.0-0.0,
sub_132,14981.5,{'Q0': ''},break,survey-text,0,14987,0.0-0.0,
sub_132,45850.0,,,instructions,1,60838,0.0-1.0,"[{'page_index': 0, 'viewing_time': 5999.899999976158}, {'page_index': 1, 'viewing_time': 39849.700000047684}]"
sub_132,18132.700000047684,{'Q0': ''},break,survey-text,0,18136,0.0-0.0,
sub_132,36891.10000002384,{'Q0': ''},break,survey-text,0,36894,0.0-0.0,
sub_132,33891.700000047684,{'Q0': ''},break,survey-text,0,33895,0.0-0.0,
sub_132,39925.10000002384,{'Q0': ''},break,survey-text,0,39928,0.0-0.0,
sub_132,52552.10000002384,{'Q0': ''},break,survey-text,0,52555,0.0-0.0,
sub_132,20585.399999976158,{'Q0': ''},break,survey-text,0,20588,0.0-0.0,
sub_132,2544.2999999523163,{'Q0': ''},break,survey-text,0,2547,0.0-0.0,
sub_133,11517.699999988079,{'Q0': 'no'},break,survey-text,0,11526,0.0-0.0,
sub_133,37874.799999952316,{'Q0': 'no'},break,survey-text,0,37879,0.0-0.0,
sub_133,28878.19999998808,{'Q0': ''},break,survey-text,0,28886,0.0-0.0,
sub_133,33902.60000002384,,,instructions,1,62789,0.0-1.0,"[{'page_index': 0, 'viewing_time': 8738.300000011921}, {'page_index': 1, 'viewing_time': 25163.600000023842}]"
sub_133,39102.90000003576,{'Q0': 'no'},break,survey-text,0,39105,0.0-0.0,
sub_133,28473.69999998808,{'Q0': 'No'},break,survey-text,0,28476,0.0-0.0,
sub_133,41651.10000002384,{'Q0': 'no'},break,survey-text,0,41654,0.0-0.0,
sub_133,8175.100000023842,{'Q0': 'No'},break,survey-text,0,8177,0.0-0.0,
sub_133,37071.69999998808,{'Q0': 'no'},break,survey-text,0,37075,0.0-0.0,
sub_133,14809.799999952316,{'Q0': 'No'},break,survey-text,0,14813,0.0-0.0,
sub_133,8692.899999976158,{'Q0': 'No'},break,survey-text,0,8696,0.0-0.0,
sub_134,12942.5,{'Q0': 'No. '},break,survey-text,0,12946,0.0-0.0,
sub_134,9685.70000000298,{'Q0': 'No.'},break,survey-text,0,9688,0.0-0.0,
sub_134,41686.900000002235,{'Q0': 'No.'},break,survey-text,0,41693,0.0-0.0,
sub_134,37963.800000000745,,,instructions,1,79657,0.0-1.0,"[{'page_index': 0, 'viewing_time': 15925.800000000745}, {'page_index': 1, 'viewing_time': 22037.5}]"
sub_134,8939.29999999702,{'Q0': 'No.'},break,survey-text,0,8941,0.0-0.0,
sub_134,22737.0,{'Q0': 'No.'},break,survey-text,0,22741,0.0-0.0,
sub_134,19663.39999999851,{'Q0': 'No.'},break,survey-text,0,19665,0.0-0.0,
sub_134,5988.5,{'Q0': 'No.'},break,survey-text,0,5990,0.0-0.0,
sub_134,7309.20000000298,{'Q0': 'No.'},break,survey-text,0,7311,0.0-0.0,
sub_134,5505.5,{'Q0': 'No.'},break,survey-text,0,5508,0.0-0.0,
sub_134,6243.099999997765,{'Q0': 'No.'},break,survey-text,0,6245,0.0-0.0,
sub_135,12833.800000071526,{'Q0': ''},break,survey-text,0,12839,0.0-0.0,
sub_135,8794.799999952316,{'Q0': ''},break,survey-text,0,8799,0.0-0.0,
sub_135,21454.200000047684,{'Q0': ''},break,survey-text,0,21462,0.0-0.0,
sub_135,20750.299999952316,,,instructions,1,42213,0.0-1.0,"[{'page_index': 0, 'viewing_time': 11293.899999976158}, {'page_index': 1, 'viewing_time': 9455.600000023842}]"
sub_135,15413.699999928474,{'Q0': ''},break,survey-text,0,15418,0.0-0.0,
sub_135,11864.0,{'Q0': ''},break,survey-text,0,11869,0.0-0.0,
sub_135,17023.800000071526,{'Q0': ''},break,survey-text,0,17027,0.0-0.0,
sub_135,10782.5,{'Q0': '\n'},break,survey-text,0,10787,0.0-0.0,
sub_135,13353.699999928474,{'Q0': ''},break,survey-text,0,13357,0.0-0.0,
sub_135,5052.300000071526,{'Q0': ''},break,survey-text,0,5057,0.0-0.0,
sub_135,9247.600000023842,{'Q0': ''},break,survey-text,0,9251,0.0-0.0,
sub_136,14939.199999928474,{'Q0': 'no'},break,survey-text,0,14948,0.0-0.0,
sub_136,9535.100000023842,{'Q0': 'no'},break,survey-text,0,9539,0.0-0.0,
sub_136,24986.399999976158,{'Q0': 'no'},break,survey-text,0,25002,0.0-0.0,
sub_136,28022.0,,,instructions,1,53024,0.0-1.0,"[{'page_index': 0, 'viewing_time': 13117.5}, {'page_index': 1, 'viewing_time': 14903.5}]"
sub_136,5542.100000023842,{'Q0': 'no'},break,survey-text,0,5546,0.0-0.0,
sub_136,5139.600000023842,{'Q0': 'no'},break,survey-text,0,5148,0.0-0.0,
sub_136,3922.5,{'Q0': 'no'},break,survey-text,0,3926,0.0-0.0,
sub_136,3093.399999976158,{'Q0': 'no'},break,survey-text,0,3097,0.0-0.0,
sub_136,3180.5,{'Q0': 'no'},break,survey-text,0,3185,0.0-0.0,
sub_136,7107.300000071526,{'Q0': 'no'},break,survey-text,0,7111,0.0-0.0,
sub_136,6186.299999952316,{'Q0': 'no'},break,survey-text,0,6201,0.0-0.0,
sub_137,31682.0,{'Q0': 'No'},break,survey-text,0,31696,0.0-0.0,
sub_137,12181.0,{'Q0': ''},break,survey-text,0,12190,0.0-0.0,
sub_137,52558.0,{'Q0': 'No'},break,survey-text,0,52568,0.0-0.0,
sub_137,23884.0,,,instructions,1,76453,0.0-1.0,"[{'page_index': 0, 'viewing_time': 18840}, {'page_index': 1, 'viewing_time': 5044}]"
sub_137,25627.0,{'Q0': 'No'},break,survey-text,0,25637,0.0-0.0,
sub_137,24857.0,{'Q0': 'No'},break,survey-text,0,24869,0.0-0.0,
sub_137,14120.0,{'Q0': 'No'},break,survey-text,0,14127,0.0-0.0,
sub_137,22598.0,{'Q0': 'No'},break,survey-text,0,22612,0.0-0.0,
sub_137,28170.0,{'Q0': 'No'},break,survey-text,0,28178,0.0-0.0,
sub_137,15037.0,{'Q0': 'No'},break,survey-text,0,15049,0.0-0.0,
sub_137,12766.0,{'Q0': 'No'},break,survey-text,0,12778,0.0-0.0,
sub_138,14305.29999999702,{'Q0': 'No'},break,survey-text,0,14337,0.0-0.0,
sub_138,16774.90000000596,{'Q0': 'No'},break,survey-text,0,16805,0.0-0.0,
sub_138,36882.20000000298,{'Q0': 'no'},break,survey-text,0,36913,0.0-0.0,
sub_138,60683.70000000298,,,instructions,1,97597,0.0-1.0,"[{'page_index': 0, 'viewing_time': 16906.20000000298}, {'page_index': 1, 'viewing_time': 43774.5}]"
sub_138,28820.90000000596,{'Q0': 'No all ok. '},break,survey-text,0,28849,0.0-0.0,
sub_138,20316.09999999404,{'Q0': 'No all was ok'},break,survey-text,0,20346,0.0-0.0,
sub_138,25582.29999999702,"{'Q0': 'No, all was ok. '}",break,survey-text,0,25611,0.0-0.0,
sub_138,19498.60000000894,{'Q0': ''},break,survey-text,0,19528,0.0-0.0,
sub_138,28257.20000000298,{'Q0': ''},break,survey-text,0,28287,0.0-0.0,
sub_138,12540.39999999106,"{'Q0': 'No, all is good'}",break,survey-text,0,12571,0.0-0.0,
sub_138,10529.5,{'Q0': 'No all was ok'},break,survey-text,0,10559,0.0-0.0,
sub_139,24620.5,{'Q0': 'no'},break,survey-text,0,24626,0.0-0.0,
sub_139,8987.80000000447,{'Q0': 'no'},break,survey-text,0,8991,0.0-0.0,
sub_139,42610.80000000447,{'Q0': 'no'},break,survey-text,0,42615,0.0-0.0,
sub_139,63032.60000000149,,,instructions,1,105648,0.0-1.0,"[{'page_index': 0, 'viewing_time': 33286.79999999702}, {'page_index': 1, 'viewing_time': 29744.70000000298}]"
sub_139,11551.89999999851,{'Q0': 'no'},break,survey-text,0,11555,0.0-0.0,
sub_139,16712.10000000149,{'Q0': 'no'},break,survey-text,0,16717,0.0-0.0,
sub_139,8219.10000000149,{'Q0': 'no'},break,survey-text,0,8222,0.0-0.0,
sub_139,10303.60000000149,{'Q0': 'no'},break,survey-text,0,10307,0.0-0.0,
sub_139,86425.39999999851,{'Q0': 'no'},break,survey-text,0,86429,0.0-0.0,
sub_139,21095.10000000149,{'Q0': 'no'},break,survey-text,0,21099,0.0-0.0,
sub_139,98871.09999999404,{'Q0': 'no'},break,survey-text,0,98876,0.0-0.0,
sub_14,32434.19999998808,{'Q0': ''},break,survey-text,0,32446,0.0-0.0,
sub_14,4019.0,{'Q0': ''},break,survey-text,0,4027,0.0-0.0,
sub_14,29501.69999998808,{'Q0': ''},break,survey-text,0,29508,0.0-0.0,
sub_14,15187.599999964237,{'Q0': ''},break,survey-text,0,15192,0.0-0.0,
sub_14,9713.0,{'Q0': ''},break,survey-text,0,9721,0.0-0.0,
sub_14,28155.100000023842,{'Q0': ''},break,survey-text,0,28159,0.0-0.0,
sub_14,16468.69999998808,{'Q0': ''},break,survey-text,0,16474,0.0-0.0,
sub_14,21412.799999952316,{'Q0': ''},break,survey-text,0,21417,0.0-0.0,
sub_14,13232.099999964237,{'Q0': ''},break,survey-text,0,13240,0.0-0.0,
sub_14,3111.2999999523163,{'Q0': ''},break,survey-text,0,3121,0.0-0.0,
sub_140,10448.900000095367,{'Q0': 'none'},break,survey-text,0,10454,0.0-0.0,
sub_140,5631.900000095367,{'Q0': 'none'},break,survey-text,0,5635,0.0-0.0,
sub_140,20605.899999976158,{'Q0': 'none'},break,survey-text,0,20624,0.0-0.0,
sub_140,19596.399999976158,,,instructions,1,40221,0.0-1.0,"[{'page_index': 0, 'viewing_time': 9274.899999976158}, {'page_index': 1, 'viewing_time': 10320.200000047684}]"
sub_140,17570.800000071526,{'Q0': 'none'},break,survey-text,0,17574,0.0-0.0,
sub_140,10742.200000047684,{'Q0': 'none'},break,survey-text,0,10745,0.0-0.0,
sub_140,6430.399999976158,{'Q0': 'none'},break,survey-text,0,6434,0.0-0.0,
sub_140,3755.7000000476837,{'Q0': 'none'},break,survey-text,0,3764,0.0-0.0,
sub_140,4631.899999976158,{'Q0': 'none'},break,survey-text,0,4640,0.0-0.0,
sub_140,3898.899999976158,{'Q0': 'none'},break,survey-text,0,3902,0.0-0.0,
sub_140,3903.3000000715256,{'Q0': 'none'},break,survey-text,0,3908,0.0-0.0,
sub_141,27852.699999809265,{'Q0': 'No'},break,survey-text,0,27861,0.0-0.0,
sub_141,26772.200000047684,{'Q0': 'No'},break,survey-text,0,26777,0.0-0.0,
sub_141,60515.700000047684,{'Q0': ''},break,survey-text,0,60525,0.0-0.0,
sub_141,74801.20000004768,,,instructions,1,135329,0.0-1.0,"[{'page_index': 0, 'viewing_time': 46678.90000009537}, {'page_index': 1, 'viewing_time': 7375.700000047684}, {'page_index': 0, 'viewing_time': 1908}, {'page_index': 1, 'viewing_time': 5433.799999952316}, {'page_index': 0, 'viewing_time': 6835.899999856949}, {'page_index': 1, 'viewing_time': 6567.900000095367}]"
sub_141,30779.200000047684,{'Q0': 'Noo'},break,survey-text,0,30783,0.0-0.0,
sub_141,29128.200000047684,{'Q0': 'Nooo'},break,survey-text,0,29131,0.0-0.0,
sub_141,16733.599999904633,{'Q0': ''},break,survey-text,0,16739,0.0-0.0,
sub_141,15109.200000047684,{'Q0': ''},break,survey-text,0,15114,0.0-0.0,
sub_141,29867.300000190735,{'Q0': ''},break,survey-text,0,29872,0.0-0.0,
sub_141,5297.200000047684,{'Q0': ''},break,survey-text,0,5302,0.0-0.0,
sub_141,8368.099999904633,{'Q0': ''},break,survey-text,0,8374,0.0-0.0,
sub_142,10177.299999952316,{'Q0': 'No'},break,survey-text,0,10182,0.0-0.0,
sub_142,5825.899999976158,{'Q0': 'No'},break,survey-text,0,5828,0.0-0.0,
sub_142,76538.10000002384,{'Q0': 'No'},break,survey-text,0,76554,0.0-0.0,
sub_142,14270.899999976158,,,instructions,1,90826,0.0-1.0,"[{'page_index': 0, 'viewing_time': 6467}, {'page_index': 1, 'viewing_time': 7803.200000047684}]"
sub_142,12974.5,{'Q0': 'No'},break,survey-text,0,12978,0.0-0.0,
sub_142,6692.599999904633,{'Q0': 'No'},break,survey-text,0,6695,0.0-0.0,
sub_142,20457.5,{'Q0': 'No'},break,survey-text,0,20465,0.0-0.0,
sub_142,11401.600000023842,{'Q0': 'No'},break,survey-text,0,11404,0.0-0.0,
sub_142,617495.5,{'Q0': 'No'},break,survey-text,0,617500,0.0-0.0,
sub_142,5028.5,{'Q0': 'No'},break,survey-text,0,5031,0.0-0.0,
sub_142,7427.299999952316,{'Q0': 'No'},break,survey-text,0,7430,0.0-0.0,
sub_143,13401.599999904633,{'Q0': 'No'},break,survey-text,0,13470,0.0-0.0,
sub_143,12305.200000047684,{'Q0': 'No'},break,survey-text,0,12376,0.0-0.0,
sub_143,25831.400000095367,{'Q0': 'No'},break,survey-text,0,25895,0.0-0.0,
sub_143,329003.0,,,instructions,1,354899,0.0-1.0,"[{'page_index': 0, 'viewing_time': 15397.799999952316}, {'page_index': 1, 'viewing_time': 313602.7000000477}]"
sub_143,143422.5,{'Q0': ''},break,survey-text,0,143462,0.0-0.0,
sub_143,132280.10000002384,{'Q0': ''},break,survey-text,0,132334,0.0-0.0,
sub_143,115389.69999992847,{'Q0': ''},break,survey-text,0,115436,0.0-0.0,
sub_143,10064.0,{'Q0': ''},break,survey-text,0,10113,0.0-0.0,
sub_143,2482.399999976158,{'Q0': ''},break,survey-text,0,2529,0.0-0.0,
sub_143,2337.600000023842,{'Q0': ''},break,survey-text,0,2378,0.0-0.0,
sub_143,2101.600000023842,{'Q0': ''},break,survey-text,0,2147,0.0-0.0,
sub_144,7289.0,{'Q0': ''},break,survey-text,0,7291,0.0-0.0,
sub_144,3608.0,{'Q0': ''},break,survey-text,0,3610,0.0-0.0,
sub_144,70854.0,{'Q0': ''},break,survey-text,0,70858,0.0-0.0,
sub_144,73905.0,,,instructions,1,144764,0.0-1.0,"[{'page_index': 0, 'viewing_time': 6622}, {'page_index': 1, 'viewing_time': 67283}]"
sub_144,15695.0,{'Q0': ''},break,survey-text,0,15696,0.0-0.0,
sub_144,10194.0,{'Q0': ''},break,survey-text,0,10196,0.0-0.0,
sub_144,4473.0,{'Q0': ''},break,survey-text,0,4476,0.0-0.0,
sub_144,6334.0,{'Q0': ''},break,survey-text,0,6337,0.0-0.0,
sub_144,6780.0,{'Q0': ''},break,survey-text,0,6785,0.0-0.0,
sub_144,2600.0,{'Q0': ''},break,survey-text,0,2602,0.0-0.0,
sub_144,3001.0,{'Q0': ''},break,survey-text,0,3005,0.0-0.0,
sub_145,10103.800000011921,{'Q0': 'No'},break,survey-text,0,10109,0.0-0.0,
sub_145,6545.9000000059605,{'Q0': 'No'},break,survey-text,0,6550,0.0-0.0,
sub_145,33040.89999999106,{'Q0': 'No'},break,survey-text,0,33048,0.0-0.0,
sub_145,44830.79999999702,,,instructions,1,77879,0.0-1.0,"[{'page_index': 0, 'viewing_time': 31998.70000000298}, {'page_index': 1, 'viewing_time': 12831.199999988079}]"
sub_145,12604.199999988079,{'Q0': 'No'},break,survey-text,0,12608,0.0-0.0,
sub_145,6942.899999991059,{'Q0': 'No'},break,survey-text,0,6946,0.0-0.0,
sub_145,42181.10000000894,{'Q0': 'No'},break,survey-text,0,42185,0.0-0.0,
sub_145,4604.5,{'Q0': 'No'},break,survey-text,0,4608,0.0-0.0,
sub_145,4820.20000000298,{'Q0': 'No'},break,survey-text,0,4824,0.0-0.0,
sub_145,5199.5,{'Q0': 'No'},break,survey-text,0,5203,0.0-0.0,
sub_145,3615.7000000029802,{'Q0': 'No'},break,survey-text,0,3624,0.0-0.0,
sub_146,10393.40000000596,{'Q0': 'nope'},break,survey-text,0,10396,0.0-0.0,
sub_146,18565.79999998212,{'Q0': 'nope ta'},break,survey-text,0,18568,0.0-0.0,
sub_146,32488.80000001192,{'Q0': ''},break,survey-text,0,32493,0.0-0.0,
sub_146,47784.60000002384,,,instructions,1,80279,0.0-1.0,"[{'page_index': 0, 'viewing_time': 45399.20000001788}, {'page_index': 1, 'viewing_time': 2384.9000000059605}]"
sub_146,82675.59999999404,{'Q0': ''},break,survey-text,0,82678,0.0-0.0,
sub_146,116231.59999999404,{'Q0': ''},break,survey-text,0,116234,0.0-0.0,
sub_146,82469.30000001192,{'Q0': ''},break,survey-text,0,82472,0.0-0.0,
sub_146,520417.5,{'Q0': ''},break,survey-text,0,520419,0.0-0.0,
sub_146,8523.199999988079,{'Q0': ''},break,survey-text,0,8526,0.0-0.0,
sub_146,1792.199999988079,{'Q0': ''},break,survey-text,0,1794,0.0-0.0,
sub_146,5804.0,{'Q0': ''},break,survey-text,0,5807,0.0-0.0,
sub_147,5608.899999976158,{'Q0': ''},break,survey-text,0,5616,0.0-0.0,
sub_147,5300.899999976158,{'Q0': ''},break,survey-text,0,5305,0.0-0.0,
sub_147,19652.399999976158,{'Q0': ''},break,survey-text,0,19662,0.0-0.0,
sub_147,25919.0,,,instructions,1,45579,0.0-1.0,"[{'page_index': 0, 'viewing_time': 12134.300000011921}, {'page_index': 1, 'viewing_time': 13783.600000023842}]"
sub_147,15698.5,{'Q0': ''},break,survey-text,0,15703,0.0-0.0,
sub_147,7293.199999988079,{'Q0': ''},break,survey-text,0,7298,0.0-0.0,
sub_147,3706.800000011921,{'Q0': ''},break,survey-text,0,3711,0.0-0.0,
sub_147,2347.5,{'Q0': ''},break,survey-text,0,2351,0.0-0.0,
sub_147,3307.5,{'Q0': ''},break,survey-text,0,3313,0.0-0.0,
sub_147,4450.400000035763,{'Q0': ''},break,survey-text,0,4455,0.0-0.0,
sub_147,2292.399999976158,{'Q0': ''},break,survey-text,0,2299,0.0-0.0,
sub_148,50948.699999928474,{'Q0': ''},break,survey-text,0,50961,0.0-0.0,
sub_148,11800.200000047684,{'Q0': ''},break,survey-text,0,11811,0.0-0.0,
sub_148,56576.89999997616,{'Q0': ''},break,survey-text,0,56595,0.0-0.0,
sub_148,37015.0,,,instructions,1,93612,0.0-1.0,"[{'page_index': 0, 'viewing_time': 21921.200000047684}, {'page_index': 1, 'viewing_time': 15092.599999904633}]"
sub_148,19595.699999928474,{'Q0': ''},break,survey-text,0,19605,0.0-0.0,
sub_148,92131.10000002384,{'Q0': ''},break,survey-text,0,92145,0.0-0.0,
sub_148,31200.200000047684,{'Q0': ''},break,survey-text,0,31221,0.0-0.0,
sub_148,41240.299999952316,{'Q0': ''},break,survey-text,0,41255,0.0-0.0,
sub_148,33000.10000002384,{'Q0': ' '},break,survey-text,0,33015,0.0-0.0,
sub_148,13121.899999976158,{'Q0': ''},break,survey-text,0,13131,0.0-0.0,
sub_148,3815.2000000476837,{'Q0': ''},break,survey-text,0,3824,0.0-0.0,
sub_149,25367.199999928474,{'Q0': 'no'},break,survey-text,0,25378,0.0-0.0,
sub_149,35182.39999997616,{'Q0': ''},break,survey-text,0,35188,0.0-0.0,
sub_149,19847.800000071526,{'Q0': ''},break,survey-text,0,19862,0.0-0.0,
sub_149,3296621.100000024,,,instructions,1,3316479,0.0-1.0,"[{'page_index': 0, 'viewing_time': 8922.899999976158}, {'page_index': 1, 'viewing_time': 3287697}]"
sub_149,51648.39999997616,{'Q0': ''},break,survey-text,0,51654,0.0-0.0,
sub_149,22018.100000023842,{'Q0': ''},break,survey-text,0,22029,0.0-0.0,
sub_149,7677.799999952316,{'Q0': ''},break,survey-text,0,7689,0.0-0.0,
sub_149,5529.799999952316,{'Q0': ''},break,survey-text,0,5539,0.0-0.0,
sub_149,11932.200000047684,{'Q0': ''},break,survey-text,0,11967,0.0-0.0,
sub_149,21351.800000071526,{'Q0': ''},break,survey-text,0,21361,0.0-0.0,
sub_149,4325.600000023842,{'Q0': ''},break,survey-text,0,4339,0.0-0.0,
sub_15,44758.10000002384,{'Q0': ''},break,survey-text,0,44765,0.0-0.0,
sub_15,82409.80000001192,{'Q0': ''},break,survey-text,0,82414,0.0-0.0,
sub_15,100806.59999996424,{'Q0': ''},break,survey-text,0,100813,0.0-0.0,
sub_15,36587.19999998808,{'Q0': ''},break,survey-text,0,36590,0.0-0.0,
sub_15,114424.60000002384,{'Q0': ''},break,survey-text,0,114429,0.0-0.0,
sub_15,59080.69999998808,{'Q0': ''},break,survey-text,0,59084,0.0-0.0,
sub_15,7567.300000011921,{'Q0': ''},break,survey-text,0,7570,0.0-0.0,
sub_15,11217.5,{'Q0': ''},break,survey-text,0,11229,0.0-0.0,
sub_15,7192.300000011921,{'Q0': ''},break,survey-text,0,7195,0.0-0.0,
sub_15,3468.800000011921,{'Q0': ''},break,survey-text,0,3477,0.0-0.0,
sub_16,13849.79999999702,{'Q0': 'no'},break,survey-text,0,13857,0.0-0.0,
sub_16,7923.80000000447,{'Q0': 'no'},break,survey-text,0,7930,0.0-0.0,
sub_16,33560.89999999851,{'Q0': 'no'},break,survey-text,0,33572,0.0-0.0,
sub_16,30193.39999999851,{'Q0': 'no'},break,survey-text,0,30200,0.0-0.0,
sub_16,19824.29999999702,{'Q0': 'no'},break,survey-text,0,19830,0.0-0.0,
sub_16,13585.30000000447,{'Q0': 'no'},break,survey-text,0,13591,0.0-0.0,
sub_16,8654.0,{'Q0': 'no'},break,survey-text,0,8660,0.0-0.0,
sub_16,13524.79999999702,{'Q0': 'no'},break,survey-text,0,13531,0.0-0.0,
sub_16,6942.89999999851,{'Q0': 'no'},break,survey-text,0,6948,0.0-0.0,
sub_16,8411.19999999553,{'Q0': 'no'},break,survey-text,0,8428,0.0-0.0,
sub_17,81636.19999998808,{'Q0': 'I felt some  lag in response to key presses'},break,survey-text,0,81644,0.0-0.0,
sub_17,16424.89999999106,{'Q0': 'Felt some key presses didnt register'},break,survey-text,0,16428,0.0-0.0,
sub_17,16509.70000000298,{'Q0': ''},break,survey-text,0,16519,0.0-0.0,
sub_17,9789.199999988079,{'Q0': ''},break,survey-text,0,9792,0.0-0.0,
sub_17,3340.4000000059605,{'Q0': ''},break,survey-text,0,3343,0.0-0.0,
sub_17,9033.60000000894,{'Q0': ''},break,survey-text,0,9042,0.0-0.0,
sub_17,7565.0,{'Q0': ''},break,survey-text,0,7568,0.0-0.0,
sub_17,7270.29999999702,{'Q0': ''},break,survey-text,0,7274,0.0-0.0,
sub_17,4438.100000008941,{'Q0': ''},break,survey-text,0,4446,0.0-0.0,
sub_17,1957.5999999940395,{'Q0': ''},break,survey-text,0,1960,0.0-0.0,
sub_18,12307.40000000596,{'Q0': ''},break,survey-text,0,12320,0.0-0.0,
sub_18,8775.79999999702,{'Q0': ''},break,survey-text,0,8787,0.0-0.0,
sub_18,17580.90000000596,{'Q0': ''},break,survey-text,0,17597,0.0-0.0,
sub_18,68574.40000000596,{'Q0': ''},break,survey-text,0,68582,0.0-0.0,
sub_18,29004.40000000596,{'Q0': ''},break,survey-text,0,29015,0.0-0.0,
sub_18,44557.5,{'Q0': ''},break,survey-text,0,44599,0.0-0.0,
sub_18,52117.90000000596,{'Q0': ''},break,survey-text,0,52176,0.0-0.0,
sub_18,6850.79999999702,{'Q0': ''},break,survey-text,0,6934,0.0-0.0,
sub_18,6366.800000011921,{'Q0': ''},break,survey-text,0,6397,0.0-0.0,
sub_18,1893.7999999970198,{'Q0': ''},break,survey-text,0,1940,0.0-0.0,
sub_19,43791.69999999553,{'Q0': ''},break,survey-text,0,43802,0.0-0.0,
sub_19,26698.39999999851,{'Q0': ''},break,survey-text,0,26704,0.0-0.0,
sub_19,32859.5,{'Q0': ''},break,survey-text,0,32867,0.0-0.0,
sub_19,29499.5,{'Q0': ''},break,survey-text,0,29505,0.0-0.0,
sub_19,28576.5,{'Q0': ''},break,survey-text,0,28581,0.0-0.0,
sub_19,131444.1000000015,{'Q0': ''},break,survey-text,0,131450,0.0-0.0,
sub_19,14513.09999999404,{'Q0': ''},break,survey-text,0,14519,0.0-0.0,
sub_19,9873.09999999404,{'Q0': ''},break,survey-text,0,9879,0.0-0.0,
sub_19,15606.5,{'Q0': ''},break,survey-text,0,15611,0.0-0.0,
sub_19,21507.20000000298,{'Q0': ''},break,survey-text,0,21512,0.0-0.0,
sub_20,16185.099999964237,{'Q0': ''},break,survey-text,0,16197,0.0-0.0,
sub_20,10403.199999988079,{'Q0': ''},break,survey-text,0,10409,0.0-0.0,
sub_20,46978.09999996424,{'Q0': ''},break,survey-text,0,46995,0.0-0.0,
sub_20,20518.299999952316,{'Q0': ''},break,survey-text,0,20527,0.0-0.0,
sub_20,24773.799999952316,{'Q0': ''},break,survey-text,0,24779,0.0-0.0,
sub_20,30494.599999964237,{'Q0': ''},break,survey-text,0,30500,0.0-0.0,
sub_20,9148.200000047684,{'Q0': ''},break,survey-text,0,9155,0.0-0.0,
sub_20,15629.199999988079,{'Q0': ''},break,survey-text,0,15643,0.0-0.0,
sub_20,7078.399999976158,{'Q0': ''},break,survey-text,0,7083,0.0-0.0,
sub_20,5902.600000023842,{'Q0': ''},break,survey-text,0,5913,0.0-0.0,
sub_21,9813.599999999977,{'Q0': 'No'},break,survey-text,0,9818,0.0-0.0,
sub_21,8794.599999999977,{'Q0': 'No'},break,survey-text,0,8798,0.0-0.0,
sub_21,29274.099999999977,{'Q0': 'No'},break,survey-text,0,29294,0.0-0.0,
sub_21,13373.099999999977,{'Q0': 'No'},break,survey-text,0,13377,0.0-0.0,
sub_21,17124.79999999993,{'Q0': 'No'},break,survey-text,0,17128,0.0-0.0,
sub_21,7816.699999999953,{'Q0': 'No'},break,survey-text,0,7819,0.0-0.0,
sub_21,13836.399999999907,{'Q0': 'No'},break,survey-text,0,13837,0.0-0.0,
sub_21,13395.399999999907,{'Q0': 'No'},break,survey-text,0,13395,0.0-0.0,
sub_21,7214.899999999907,{'Q0': 'No'},break,survey-text,0,7218,0.0-0.0,
sub_21,5677.90000000014,{'Q0': 'No'},break,survey-text,0,5682,0.0-0.0,
sub_22,18509.599999999627,{'Q0': ''},break,survey-text,0,18539,0.0-0.0,
sub_22,6366.0,{'Q0': ''},break,survey-text,0,6388,0.0-0.0,
sub_22,56126.89999999991,{'Q0': ''},break,survey-text,0,56150,0.0-0.0,
sub_22,17231.099999999627,{'Q0': ''},break,survey-text,0,17249,0.0-0.0,
sub_22,8227.100000000093,{'Q0': ''},break,survey-text,0,8246,0.0-0.0,
sub_22,4098.699999999721,{'Q0': ''},break,survey-text,0,4118,0.0-0.0,
sub_22,5269.5,{'Q0': ''},break,survey-text,0,5288,0.0-0.0,
sub_22,8846.0,{'Q0': ''},break,survey-text,0,8866,0.0-0.0,
sub_22,4127.700000000186,{'Q0': ''},break,survey-text,0,4149,0.0-0.0,
sub_22,8222.599999999627,{'Q0': ''},break,survey-text,0,8240,0.0-0.0,
sub_23,10218.09999999404,{'Q0': ''},break,survey-text,0,10223,0.0-0.0,
sub_23,12467.5,{'Q0': ''},break,survey-text,0,12471,0.0-0.0,
sub_23,58177.19999998808,{'Q0': ''},break,survey-text,0,58184,0.0-0.0,
sub_23,21590.29999999702,{'Q0': ''},break,survey-text,0,21595,0.0-0.0,
sub_23,21810.10000000894,{'Q0': ''},break,survey-text,0,21813,0.0-0.0,
sub_23,18375.30000001192,{'Q0': ''},break,survey-text,0,18378,0.0-0.0,
sub_23,16593.89999999106,{'Q0': ''},break,survey-text,0,16597,0.0-0.0,
sub_23,28619.40000000596,{'Q0': ''},break,survey-text,0,28624,0.0-0.0,
sub_23,16727.0,{'Q0': ''},break,survey-text,0,16730,0.0-0.0,
sub_23,6314.100000008941,{'Q0': ''},break,survey-text,0,6318,0.0-0.0,
sub_24,17662.69999998808,{'Q0': 'N/A'},break,survey-text,0,17668,0.0-0.0,
sub_24,12606.200000047684,{'Q0': 'N/A'},break,survey-text,0,12610,0.0-0.0,
sub_24,58282.5,{'Q0': 'N/A'},break,survey-text,0,58292,0.0-0.0,
sub_24,20633.099999964237,{'Q0': 'N/A'},break,survey-text,0,20637,0.0-0.0,
sub_24,29751.5,{'Q0': 'N/A'},break,survey-text,0,29754,0.0-0.0,
sub_24,49672.30000001192,{'Q0': 'N/A'},break,survey-text,0,49676,0.0-0.0,
sub_24,11876.599999964237,{'Q0': 'N/A'},break,survey-text,0,11881,0.0-0.0,
sub_24,13778.699999988079,{'Q0': 'N/A'},break,survey-text,0,13782,0.0-0.0,
sub_24,8611.0,{'Q0': 'N/A'},break,survey-text,0,8615,0.0-0.0,
sub_24,7523.100000023842,{'Q0': 'N/A'},break,survey-text,0,7527,0.0-0.0,
sub_25,17646.0,{'Q0': 'no'},break,survey-text,0,17650,0.0-0.0,
sub_25,9067.0,{'Q0': 'no'},break,survey-text,0,9072,0.0-0.0,
sub_25,45402.0,{'Q0': 'No'},break,survey-text,0,45407,0.0-0.0,
sub_25,168509.0,"{'Q0': 'A practice round for this would have been good, it took some time for me to get my eye in.'}",break,survey-text,0,168514,0.0-0.0,
sub_25,33826.0,{'Q0': 'No'},break,survey-text,0,33831,0.0-0.0,
sub_25,42171.0,{'Q0': 'no'},break,survey-text,0,42176,0.0-0.0,
sub_25,37698.0,{'Q0': 'no'},break,survey-text,0,37704,0.0-0.0,
sub_25,32865.0,{'Q0': 'No'},break,survey-text,0,32871,0.0-0.0,
sub_25,20614.0,{'Q0': 'No'},break,survey-text,0,20620,0.0-0.0,
sub_25,9097.0,{'Q0': 'No'},break,survey-text,0,9101,0.0-0.0,
sub_26,8110.600000023842,{'Q0': ''},break,survey-text,0,8115,0.0-0.0,
sub_26,10918.59999999404,{'Q0': ''},break,survey-text,0,10921,0.0-0.0,
sub_26,33590.79999998212,{'Q0': ''},break,survey-text,0,33598,0.0-0.0,
sub_26,16225.0,{'Q0': ''},break,survey-text,0,16227,0.0-0.0,
sub_26,8917.90000000596,{'Q0': ''},break,survey-text,0,8920,0.0-0.0,
sub_26,7347.4000000059605,{'Q0': ''},break,survey-text,0,7349,0.0-0.0,
sub_26,6689.200000017881,{'Q0': ''},break,survey-text,0,6693,0.0-0.0,
sub_26,3705.100000023842,{'Q0': ''},break,survey-text,0,3709,0.0-0.0,
sub_26,3790.0999999940395,{'Q0': ''},break,survey-text,0,3793,0.0-0.0,
sub_26,3962.5,{'Q0': ''},break,survey-text,0,3965,0.0-0.0,
sub_27,10145.100000023842,{'Q0': 'no problems '},break,survey-text,0,10151,0.0-0.0,
sub_27,314460.5,{'Q0': 'no problems'},break,survey-text,0,314466,0.0-0.0,
sub_27,29031.19999998808,{'Q0': 'no problems'},break,survey-text,0,29040,0.0-0.0,
sub_27,25408.400000035763,{'Q0': 'it would help to use different keys as i kept getting them mixed up'},break,survey-text,0,25412,0.0-0.0,
sub_27,6209.0,{'Q0': ''},break,survey-text,0,6216,0.0-0.0,
sub_27,8784.5,{'Q0': 'nop'},break,survey-text,0,8790,0.0-0.0,
sub_27,10504.5,{'Q0': 'still mixing up the keys thats all'},break,survey-text,0,10508,0.0-0.0,
sub_27,15920.199999988079,{'Q0': ''},break,survey-text,0,15926,0.0-0.0,
sub_27,12633.5,{'Q0': 'no'},break,survey-text,0,12638,0.0-0.0,
sub_27,7846.299999952316,{'Q0': 'no'},break,survey-text,0,7851,0.0-0.0,
sub_28,24156.30000001192,{'Q0': 'no'},break,survey-text,0,24165,0.0-0.0,
sub_28,4750.5999999940395,{'Q0': 'no'},break,survey-text,0,4757,0.0-0.0,
sub_28,67062.19999998808,{'Q0': 'no'},break,survey-text,0,67072,0.0-0.0,
sub_28,31339.59999999404,{'Q0': 'no'},break,survey-text,0,31346,0.0-0.0,
sub_28,15489.0,{'Q0': 'no'},break,survey-text,0,15496,0.0-0.0,
sub_28,12225.600000023842,{'Q0': 'no'},break,survey-text,0,12230,0.0-0.0,
sub_28,17553.5,{'Q0': 'no'},break,survey-text,0,17562,0.0-0.0,
sub_28,21988.30000001192,{'Q0': 'no'},break,survey-text,0,21997,0.0-0.0,
sub_28,14765.0,{'Q0': 'no'},break,survey-text,0,14770,0.0-0.0,
sub_28,10157.700000017881,{'Q0': 'no'},break,survey-text,0,10163,0.0-0.0,
sub_29,10444.800000011921,{'Q0': 'no'},break,survey-text,0,10449,0.0-0.0,
sub_29,5884.699999988079,{'Q0': 'no'},break,survey-text,0,5887,0.0-0.0,
sub_29,21939.30000001192,{'Q0': 'no'},break,survey-text,0,21945,0.0-0.0,
sub_29,14167.699999988079,{'Q0': 'no'},break,survey-text,0,14171,0.0-0.0,
sub_29,12884.300000011921,{'Q0': 'no'},break,survey-text,0,12887,0.0-0.0,
sub_29,14401.199999988079,{'Q0': 'no'},break,survey-text,0,14404,0.0-0.0,
sub_29,8387.5,{'Q0': 'no'},break,survey-text,0,8390,0.0-0.0,
sub_29,45582.10000002384,{'Q0': 'no'},break,survey-text,0,45595,0.0-0.0,
sub_29,3722.600000023842,{'Q0': 'no'},break,survey-text,0,3725,0.0-0.0,
sub_29,4128.0,{'Q0': 'no'},break,survey-text,0,4132,0.0-0.0,
sub_30,10586.0,{'Q0': 'none'},break,survey-text,0,10590,0.0-0.0,
sub_30,23162.19999998808,{'Q0': 'none'},break,survey-text,0,23164,0.0-0.0,
sub_30,36987.30000001192,{'Q0': 'none'},break,survey-text,0,36994,0.0-0.0,
sub_30,37480.30000001192,{'Q0': 'none '},break,survey-text,0,37485,0.0-0.0,
sub_30,28681.0,{'Q0': 'none'},break,survey-text,0,28684,0.0-0.0,
sub_30,23465.399999976158,{'Q0': 'none'},break,survey-text,0,23468,0.0-0.0,
sub_30,19055.0,{'Q0': 'none'},break,survey-text,0,19059,0.0-0.0,
sub_30,9148.0,{'Q0': 'none'},break,survey-text,0,9151,0.0-0.0,
sub_30,9934.90000000596,{'Q0': 'none'},break,survey-text,0,9938,0.0-0.0,
sub_30,6193.300000011921,{'Q0': 'none'},break,survey-text,0,6197,0.0-0.0,
sub_31,11878.29999999702,{'Q0': 'no'},break,survey-text,0,11903,0.0-0.0,
sub_31,58399.5,{'Q0': 'no'},break,survey-text,0,58429,0.0-0.0,
sub_31,42465.80000001192,{'Q0': 'no'},break,survey-text,0,42499,0.0-0.0,
sub_31,4394.4000000059605,,,instructions,1,46895,0.0-1.0,"[{'page_index': 0, 'viewing_time': 2156.4000000059605}, {'page_index': 1, 'viewing_time': 2237.0999999940395}]"
sub_31,224010.09999999404,{'Q0': 'no'},break,survey-text,0,224034,0.0-0.0,
sub_31,78953.39999999106,{'Q0': 'no'},break,survey-text,0,78971,0.0-0.0,
sub_31,20302.40000000596,{'Q0': 'no'},break,survey-text,0,20320,0.0-0.0,
sub_31,10862.79999999702,{'Q0': 'no'},break,survey-text,0,10882,0.0-0.0,
sub_31,14929.699999988079,{'Q0': 'no'},break,survey-text,0,14954,0.0-0.0,
sub_31,3901.7000000029802,{'Q0': 'no'},break,survey-text,0,3921,0.0-0.0,
sub_31,12633.20000000298,{'Q0': 'no'},break,survey-text,0,12654,0.0-0.0,
sub_32,10288.200000047684,{'Q0': ''},break,survey-text,0,10304,0.0-0.0,
sub_32,16687.400000095367,{'Q0': ''},break,survey-text,0,16699,0.0-0.0,
sub_32,24069.299999952316,{'Q0': ''},break,survey-text,0,24084,0.0-0.0,
sub_32,22373.900000095367,,,instructions,1,46462,0.0-1.0,"[{'page_index': 0, 'viewing_time': 9653.5}, {'page_index': 1, 'viewing_time': 12717.600000143051}]"
sub_32,12362.700000047684,{'Q0': ''},break,survey-text,0,12375,0.0-0.0,
sub_32,15040.0,{'Q0': ''},break,survey-text,0,15056,0.0-0.0,
sub_32,27173.5,{'Q0': ''},break,survey-text,0,27185,0.0-0.0,
sub_32,62191.5,{'Q0': ''},break,survey-text,0,62201,0.0-0.0,
sub_32,18318.5,{'Q0': ''},break,survey-text,0,18330,0.0-0.0,
sub_32,6846.400000095367,{'Q0': ''},break,survey-text,0,6868,0.0-0.0,
sub_32,3077.7000000476837,{'Q0': ''},break,survey-text,0,3090,0.0-0.0,
sub_33,22731.0,{'Q0': 'none at all'},break,survey-text,0,22754,0.0-0.0,
sub_33,8554.0,{'Q0': 'none at all'},break,survey-text,0,8570,0.0-0.0,
sub_33,42133.0,{'Q0': 'none at all'},break,survey-text,0,42152,0.0-0.0,
sub_33,5013.0,,,instructions,1,47167,0.0-1.0,"[{'page_index': 0, 'viewing_time': 2012}, {'page_index': 1, 'viewing_time': 3000}]"
sub_33,9966.0,{'Q0': 'no none at all'},break,survey-text,0,9984,0.0-0.0,
sub_33,10455.0,{'Q0': 'no none at all'},break,survey-text,0,10473,0.0-0.0,
sub_33,7959.0,{'Q0': 'no none'},break,survey-text,0,7977,0.0-0.0,
sub_33,10689.0,{'Q0': 'no none'},break,survey-text,0,10704,0.0-0.0,
sub_33,12669.0,{'Q0': 'no none'},break,survey-text,0,12684,0.0-0.0,
sub_33,13588.0,{'Q0': 'no none'},break,survey-text,0,13607,0.0-0.0,
sub_33,8014.0,{'Q0': 'no none'},break,survey-text,0,8035,0.0-0.0,
sub_34,18698.40000000596,{'Q0': 'No - all good!'},break,survey-text,0,18702,0.0-0.0,
sub_34,9323.70000000298,{'Q0': 'All good'},break,survey-text,0,9326,0.0-0.0,
sub_34,45861.59999999404,{'Q0': 'All good.'},break,survey-text,0,45867,0.0-0.0,
sub_34,28968.20000000298,,,instructions,1,74836,0.0-1.0,"[{'page_index': 0, 'viewing_time': 17085.10000000894}, {'page_index': 1, 'viewing_time': 11882.59999999404}]"
sub_34,18545.89999999106,{'Q0': 'All good.'},break,survey-text,0,18549,0.0-0.0,
sub_34,68885.09999999404,"{'Q0': 'Yes. I could not see the last four or five images. It was all blank! Then a messaged of ""missed"", or something. '}",break,survey-text,0,68891,0.0-0.0,
sub_34,37404.20000000298,{'Q0': 'No. All good this time.'},break,survey-text,0,37406,0.0-0.0,
sub_34,14902.39999999106,{'Q0': 'All good!'},break,survey-text,0,14905,0.0-0.0,
sub_34,8975.39999999106,{'Q0': 'All good!'},break,survey-text,0,8982,0.0-0.0,
sub_34,6070.5,{'Q0': ''},break,survey-text,0,6073,0.0-0.0,
sub_34,6884.100000008941,{'Q0': 'No. All good.'},break,survey-text,0,6887,0.0-0.0,
sub_35,30065.69999998808,"{'Q0': 'No, everything went well!'}",break,survey-text,0,30076,0.0-0.0,
sub_35,19311.599999964237,{'Q0': 'Nope!'},break,survey-text,0,19318,0.0-0.0,
sub_35,46017.5,{'Q0': 'No'},break,survey-text,0,46039,0.0-0.0,
sub_35,38330.89999997616,,,instructions,1,84371,0.0-1.0,"[{'page_index': 0, 'viewing_time': 16403.69999998808}, {'page_index': 1, 'viewing_time': 21925.900000035763}]"
sub_35,29491.5,"{'Q0': 'No, all went well'}",break,survey-text,0,29502,0.0-0.0,
sub_35,18943.5,{'Q0': 'No'},break,survey-text,0,18952,0.0-0.0,
sub_35,31450.099999964237,{'Q0': 'Nope!'},break,survey-text,0,31460,0.0-0.0,
sub_35,15336.5,"{'Q0': 'No, all went well'}",break,survey-text,0,15339,0.0-0.0,
sub_35,23361.19999998808,{'Q0': 'Nope!'},break,survey-text,0,23365,0.0-0.0,
sub_35,12710.900000035763,"{'Q0': 'No, all went well'}",break,survey-text,0,12715,0.0-0.0,
sub_35,10823.800000011921,"{'Q0': 'No, everything went fine'}",break,survey-text,0,10828,0.0-0.0,
sub_36,36061.30000000447,{'Q0': ''},break,survey-text,0,36065,0.0-0.0,
sub_36,10085.0,{'Q0': ''},break,survey-text,0,10089,0.0-0.0,
sub_36,21793.0,{'Q0': ''},break,survey-text,0,21797,0.0-0.0,
sub_36,14957.39999999851,,,instructions,1,36756,0.0-1.0,"[{'page_index': 0, 'viewing_time': 5201.20000000298}, {'page_index': 1, 'viewing_time': 9754.60000000149}]"
sub_36,10426.89999999851,{'Q0': ''},break,survey-text,0,10430,0.0-0.0,
sub_36,4540.5,{'Q0': ''},break,survey-text,0,4544,0.0-0.0,
sub_36,7267.10000000149,{'Q0': ''},break,survey-text,0,7271,0.0-0.0,
sub_36,95125.0,{'Q0': ''},break,survey-text,0,95129,0.0-0.0,
sub_36,9286.19999999553,{'Q0': ''},break,survey-text,0,9290,0.0-0.0,
sub_36,3134.39999999851,{'Q0': ''},break,survey-text,0,3137,0.0-0.0,
sub_36,4652.79999999702,{'Q0': ''},break,survey-text,0,4656,0.0-0.0,
sub_37,32773.40000000596,{'Q0': ''},break,survey-text,0,32778,0.0-0.0,
sub_37,3578.699999988079,{'Q0': ''},break,survey-text,0,3581,0.0-0.0,
sub_37,34169.80000001192,{'Q0': ''},break,survey-text,0,34175,0.0-0.0,
sub_37,17988.0,,,instructions,1,52164,0.0-1.0,"[{'page_index': 0, 'viewing_time': 10641.90000000596}, {'page_index': 1, 'viewing_time': 7345.5999999940395}]"
sub_37,5749.399999991059,{'Q0': ''},break,survey-text,0,5752,0.0-0.0,
sub_37,24302.29999999702,{'Q0': ''},break,survey-text,0,24306,0.0-0.0,
sub_37,20034.70000000298,{'Q0': ''},break,survey-text,0,20038,0.0-0.0,
sub_37,18995.40000000596,{'Q0': ''},break,survey-text,0,18999,0.0-0.0,
sub_37,8789.89999999106,{'Q0': ''},break,survey-text,0,8794,0.0-0.0,
sub_37,5067.5999999940395,{'Q0': ''},break,survey-text,0,5072,0.0-0.0,
sub_37,3507.7000000029802,{'Q0': ''},break,survey-text,0,3511,0.0-0.0,
sub_38,4653.5,{'Q0': ''},break,survey-text,0,4661,0.0-0.0,
sub_38,11705.099999964237,{'Q0': ''},break,survey-text,0,11711,0.0-0.0,
sub_38,15417.300000011921,{'Q0': ''},break,survey-text,0,15428,0.0-0.0,
sub_38,31066.600000023842,,,instructions,1,46495,0.0-1.0,"[{'page_index': 0, 'viewing_time': 10240.300000011921}, {'page_index': 1, 'viewing_time': 20825.900000035763}]"
sub_38,14420.400000035763,{'Q0': ''},break,survey-text,0,14425,0.0-0.0,
sub_38,11519.5,{'Q0': ''},break,survey-text,0,11524,0.0-0.0,
sub_38,15320.399999976158,{'Q0': ''},break,survey-text,0,15325,0.0-0.0,
sub_38,11937.300000011921,{'Q0': ''},break,survey-text,0,11942,0.0-0.0,
sub_38,9477.899999976158,{'Q0': ''},break,survey-text,0,9482,0.0-0.0,
sub_38,6527.0,{'Q0': ''},break,survey-text,0,6531,0.0-0.0,
sub_38,2217.100000023842,{'Q0': ''},break,survey-text,0,2231,0.0-0.0,
sub_39,10230.199999988079,{'Q0': ''},break,survey-text,0,10240,0.0-0.0,
sub_39,9351.800000011921,{'Q0': ''},break,survey-text,0,9360,0.0-0.0,
sub_39,38418.39999997616,{'Q0': ''},break,survey-text,0,38449,0.0-0.0,
sub_39,38241.0,,,instructions,1,76692,0.0-1.0,"[{'page_index': 0, 'viewing_time': 18525.399999976158}, {'page_index': 1, 'viewing_time': 19714.19999998808}]"
sub_39,19417.599999964237,{'Q0': ''},break,survey-text,0,19424,0.0-0.0,
sub_39,12048.400000035763,{'Q0': ''},break,survey-text,0,12056,0.0-0.0,
sub_39,6414.800000011921,{'Q0': ''},break,survey-text,0,6421,0.0-0.0,
sub_39,4771.100000023842,{'Q0': ''},break,survey-text,0,4779,0.0-0.0,
sub_39,2582.0,{'Q0': ''},break,survey-text,0,2591,0.0-0.0,
sub_39,9524.800000011921,{'Q0': ''},break,survey-text,0,9532,0.0-0.0,
sub_39,5579.299999952316,{'Q0': ''},break,survey-text,0,5587,0.0-0.0,
sub_40,13234.600000023842,{'Q0': 'no'},break,survey-text,0,13238,0.0-0.0,
sub_40,7725.700000047684,{'Q0': ''},break,survey-text,0,7729,0.0-0.0,
sub_40,42414.19999998808,{'Q0': 'no\n'},break,survey-text,0,42430,0.0-0.0,
sub_40,58290.60000002384,,,instructions,1,100721,0.0-1.0,"[{'page_index': 0, 'viewing_time': 20886.80000001192}, {'page_index': 1, 'viewing_time': 37403.10000002384}]"
sub_40,18590.400000035763,{'Q0': 'no'},break,survey-text,0,18593,0.0-0.0,
sub_40,18701.80000001192,{'Q0': 'no'},break,survey-text,0,18705,0.0-0.0,
sub_40,7446.599999964237,{'Q0': 'no'},break,survey-text,0,7450,0.0-0.0,
sub_40,39244.59999996424,{'Q0': 'no'},break,survey-text,0,39247,0.0-0.0,
sub_40,18994.599999964237,{'Q0': 'no'},break,survey-text,0,19000,0.0-0.0,
sub_40,20738.599999964237,{'Q0': 'no'},break,survey-text,0,20741,0.0-0.0,
sub_40,7393.900000035763,{'Q0': 'no'},break,survey-text,0,7397,0.0-0.0,
sub_41,6754.599999964237,{'Q0': ''},break,survey-text,0,6765,0.0-0.0,
sub_41,3618.100000023842,{'Q0': ''},break,survey-text,0,3638,0.0-0.0,
sub_41,14049.900000035763,{'Q0': ''},break,survey-text,0,14065,0.0-0.0,
sub_41,6158.600000023842,,,instructions,1,20225,0.0-1.0,"[{'page_index': 0, 'viewing_time': 1694.300000011921}, {'page_index': 1, 'viewing_time': 4463.600000023842}]"
sub_41,4470.099999964237,{'Q0': ''},break,survey-text,0,4473,0.0-0.0,
sub_41,5609.5,{'Q0': ''},break,survey-text,0,5613,0.0-0.0,
sub_41,5731.600000023842,{'Q0': ''},break,survey-text,0,5735,0.0-0.0,
sub_41,3832.699999988079,{'Q0': ''},break,survey-text,0,3836,0.0-0.0,
sub_41,4646.5,{'Q0': ''},break,survey-text,0,4660,0.0-0.0,
sub_41,2829.800000011921,{'Q0': ''},break,survey-text,0,2833,0.0-0.0,
sub_41,2385.699999988079,{'Q0': ''},break,survey-text,0,2392,0.0-0.0,
sub_42,11083.699999999255,{'Q0': 'no'},break,survey-text,0,11103,0.0-0.0,
sub_42,8468.199999999255,{'Q0': 'no'},break,survey-text,0,8478,0.0-0.0,
sub_42,23527.200000001118,{'Q0': 'no'},break,survey-text,0,23543,0.0-0.0,
sub_42,16135.699999999255,,,instructions,1,39681,0.0-1.0,"[{'page_index': 0, 'viewing_time': 10329.199999999255}, {'page_index': 1, 'viewing_time': 5804.5}]"
sub_42,11991.099999999627,{'Q0': 'no'},break,survey-text,0,12001,0.0-0.0,
sub_42,12385.800000000745,{'Q0': 'no'},break,survey-text,0,12395,0.0-0.0,
sub_42,6235.5999999996275,{'Q0': 'no'},break,survey-text,0,6245,0.0-0.0,
sub_42,4681.0,{'Q0': 'no'},break,survey-text,0,4692,0.0-0.0,
sub_42,7893.5,{'Q0': 'no'},break,survey-text,0,7912,0.0-0.0,
sub_42,6787.5,{'Q0': 'no'},break,survey-text,0,6805,0.0-0.0,
sub_42,5268.5,{'Q0': 'no'},break,survey-text,0,5279,0.0-0.0,
sub_43,10143.300000000745,{'Q0': ''},break,survey-text,0,10147,0.0-0.0,
sub_43,4334.0,{'Q0': ''},break,survey-text,0,4336,0.0-0.0,
sub_43,17886.099999997765,{'Q0': ''},break,survey-text,0,17892,0.0-0.0,
sub_43,18614.10000000149,,,instructions,1,36506,0.0-1.0,"[{'page_index': 0, 'viewing_time': 10358.89999999851}, {'page_index': 1, 'viewing_time': 8254.800000000745}]"
sub_43,17433.800000000745,{'Q0': ''},break,survey-text,0,17437,0.0-0.0,
sub_43,88240.69999999925,{'Q0': ''},break,survey-text,0,88243,0.0-0.0,
sub_43,3213.39999999851,{'Q0': ''},break,survey-text,0,3216,0.0-0.0,
sub_43,48353.699999999255,{'Q0': ''},break,survey-text,0,48355,0.0-0.0,
sub_43,9324.5,{'Q0': ''},break,survey-text,0,9327,0.0-0.0,
sub_43,3727.199999999255,{'Q0': ''},break,survey-text,0,3730,0.0-0.0,
sub_43,3636.89999999851,{'Q0': ''},break,survey-text,0,3640,0.0-0.0,
sub_44,9991.79999999702,{'Q0': ''},break,survey-text,0,9998,0.0-0.0,
sub_44,12094.70000000298,{'Q0': ''},break,survey-text,0,12099,0.0-0.0,
sub_44,68674.39999999106,{'Q0': ''},break,survey-text,0,68683,0.0-0.0,
sub_44,21246.69999998808,,,instructions,1,89930,0.0-1.0,"[{'page_index': 0, 'viewing_time': 13025.39999999106}, {'page_index': 1, 'viewing_time': 8220.40000000596}]"
sub_44,17965.5,{'Q0': ''},break,survey-text,0,17969,0.0-0.0,
sub_44,9035.79999999702,{'Q0': ''},break,survey-text,0,9040,0.0-0.0,
sub_44,9482.40000000596,{'Q0': ''},break,survey-text,0,9487,0.0-0.0,
sub_44,6009.4000000059605,{'Q0': ''},break,survey-text,0,6014,0.0-0.0,
sub_44,12244.800000011921,{'Q0': ''},break,survey-text,0,12250,0.0-0.0,
sub_44,9698.5,{'Q0': ''},break,survey-text,0,9704,0.0-0.0,
sub_44,6120.5,{'Q0': ''},break,survey-text,0,6126,0.0-0.0,
sub_45,19519.5,{'Q0': 'a bit of slow loading of images'},break,survey-text,0,19544,0.0-0.0,
sub_45,6890.699999809265,{'Q0': ''},break,survey-text,0,6898,0.0-0.0,
sub_45,27023.5,{'Q0': ''},break,survey-text,0,27043,0.0-0.0,
sub_45,35810.700000047684,,,instructions,1,62856,0.0-1.0,"[{'page_index': 0, 'viewing_time': 17665.900000095367}, {'page_index': 1, 'viewing_time': 18143.299999952316}]"
sub_45,18486.200000047684,{'Q0': ''},break,survey-text,0,18493,0.0-0.0,
sub_45,7134.799999952316,{'Q0': ''},break,survey-text,0,7145,0.0-0.0,
sub_45,7200.900000095367,{'Q0': ''},break,survey-text,0,7212,0.0-0.0,
sub_45,7724.600000143051,{'Q0': ''},break,survey-text,0,7733,0.0-0.0,
sub_45,6175.799999952316,{'Q0': ''},break,survey-text,0,6185,0.0-0.0,
sub_45,2869.2999999523163,{'Q0': ''},break,survey-text,0,2876,0.0-0.0,
sub_45,2652.0,{'Q0': ''},break,survey-text,0,2661,0.0-0.0,
sub_46,9029.400000035763,{'Q0': ''},break,survey-text,0,9056,0.0-0.0,
sub_46,10312.300000011921,{'Q0': ''},break,survey-text,0,10339,0.0-0.0,
sub_46,37145.5,{'Q0': ''},break,survey-text,0,37175,0.0-0.0,
sub_46,9756.299999952316,,,instructions,1,46934,0.0-1.0,"[{'page_index': 0, 'viewing_time': 9598.599999964237}, {'page_index': 1, 'viewing_time': 155.10000002384186}]"
sub_46,23789.400000035763,{'Q0': ''},break,survey-text,0,23808,0.0-0.0,
sub_46,10252.800000011921,{'Q0': ''},break,survey-text,0,10273,0.0-0.0,
sub_46,20388.099999964237,{'Q0': ''},break,survey-text,0,20408,0.0-0.0,
sub_46,15001.100000023842,{'Q0': ''},break,survey-text,0,15019,0.0-0.0,
sub_46,12946.0,{'Q0': ''},break,survey-text,0,12965,0.0-0.0,
sub_46,4995.599999964237,{'Q0': ''},break,survey-text,0,5023,0.0-0.0,
sub_46,3724.899999976158,{'Q0': ''},break,survey-text,0,3747,0.0-0.0,
sub_47,10106.800000000745,{'Q0': ''},break,survey-text,0,10113,0.0-0.0,
sub_47,38008.40000000037,{'Q0': ''},break,survey-text,0,38013,0.0-0.0,
sub_47,149038.90000000037,{'Q0': ''},break,survey-text,0,149055,0.0-0.0,
sub_47,85695.09999999963,,,instructions,1,234752,0.0-1.0,"[{'page_index': 0, 'viewing_time': 6351.4000000003725}, {'page_index': 1, 'viewing_time': 79341.69999999925}]"
sub_47,492789.80000000075,{'Q0': ''},break,survey-text,0,492795,0.0-0.0,
sub_47,122966.09999999963,{'Q0': ''},break,survey-text,0,122972,0.0-0.0,
sub_47,129240.40000000037,{'Q0': ''},break,survey-text,0,129249,0.0-0.0,
sub_47,43404.800000000745,{'Q0': ''},break,survey-text,0,43414,0.0-0.0,
sub_47,46538.79999999702,{'Q0': ''},break,survey-text,0,46549,0.0-0.0,
sub_47,18024.60000000149,{'Q0': ''},break,survey-text,0,18031,0.0-0.0,
sub_47,6047.60000000149,{'Q0': ''},break,survey-text,0,6052,0.0-0.0,
sub_48,89149.0,{'Q0': 'No not at all'},break,survey-text,0,89164,0.0-0.0,
sub_48,30250.0,{'Q0': 'No not at all'},break,survey-text,0,30255,0.0-0.0,
sub_48,174834.89999985695,{'Q0': 'no not at all'},break,survey-text,0,174845,0.0-0.0,
sub_48,34337.0,,,instructions,1,209183,0.0-1.0,"[{'page_index': 0, 'viewing_time': 2827.7000000476837}, {'page_index': 1, 'viewing_time': 31508}]"
sub_48,18425.60000014305,{'Q0': 'no'},break,survey-text,0,18431,0.0-0.0,
sub_48,30060.599999904633,{'Q0': 'No'},break,survey-text,0,30065,0.0-0.0,
sub_48,89004.20000004768,{'Q0': 'No'},break,survey-text,0,89008,0.0-0.0,
sub_48,32303.599999904633,{'Q0': 'No'},break,survey-text,0,32309,0.0-0.0,
sub_48,577223.4000000954,{'Q0': 'No'},break,survey-text,0,577227,0.0-0.0,
sub_48,64020.300000190735,{'Q0': 'no'},break,survey-text,0,64026,0.0-0.0,
sub_48,6026.200000047684,{'Q0': 'no'},break,survey-text,0,6032,0.0-0.0,
sub_49,23547.299999999814,{'Q0': 'no'},break,survey-text,0,23553,0.0-0.0,
sub_49,12218.700000000186,{'Q0': 'no'},break,survey-text,0,12222,0.0-0.0,
sub_49,43397.0,{'Q0': 'no'},break,survey-text,0,43403,0.0-0.0,
sub_49,30766.299999999814,,,instructions,1,74170,0.0-1.0,"[{'page_index': 0, 'viewing_time': 23670}, {'page_index': 1, 'viewing_time': 7095.899999999441}]"
sub_49,19824.799999999814,{'Q0': 'no'},break,survey-text,0,19828,0.0-0.0,
sub_49,11317.400000000373,{'Q0': 'no'},break,survey-text,0,11320,0.0-0.0,
sub_49,7363.700000000186,{'Q0': 'no'},break,survey-text,0,7367,0.0-0.0,
sub_49,9014.099999999627,{'Q0': 'no'},break,survey-text,0,9017,0.0-0.0,
sub_49,6391.5,{'Q0': 'no'},break,survey-text,0,6395,0.0-0.0,
sub_49,6412.799999999814,{'Q0': 'no'},break,survey-text,0,6416,0.0-0.0,
sub_49,4369.799999999814,{'Q0': 'no'},break,survey-text,0,4373,0.0-0.0,
sub_50,22378.5,{'Q0': 'None'},break,survey-text,0,22384,0.0-0.0,
sub_50,14418.10000000894,{'Q0': 'None'},break,survey-text,0,14420,0.0-0.0,
sub_50,101434.90000000596,{'Q0': 'None'},break,survey-text,0,101440,0.0-0.0,
sub_50,40857.59999999404,,,instructions,1,142298,0.0-1.0,"[{'page_index': 0, 'viewing_time': 17441.59999999404}, {'page_index': 1, 'viewing_time': 23415}]"
sub_50,29168.79999999702,{'Q0': 'None'},break,survey-text,0,29172,0.0-0.0,
sub_50,41322.29999999702,{'Q0': 'None'},break,survey-text,0,41325,0.0-0.0,
sub_50,31086.40000000596,{'Q0': 'None'},break,survey-text,0,31089,0.0-0.0,
sub_50,60223.29999999702,{'Q0': 'None'},break,survey-text,0,60226,0.0-0.0,
sub_50,82866.5,{'Q0': 'None'},break,survey-text,0,82870,0.0-0.0,
sub_50,43446.0,{'Q0': 'None'},break,survey-text,0,43448,0.0-0.0,
sub_50,19623.5,{'Q0': 'None'},break,survey-text,0,19627,0.0-0.0,
sub_51,14084.899999976158,{'Q0': 'no'},break,survey-text,0,14091,0.0-0.0,
sub_51,8625.699999988079,{'Q0': 'no'},break,survey-text,0,8632,0.0-0.0,
sub_51,51691.10000002384,{'Q0': 'no'},break,survey-text,0,51697,0.0-0.0,
sub_51,341045.39999997616,,,instructions,1,392736,0.0-1.0,"[{'page_index': 0, 'viewing_time': 6642.800000011921}, {'page_index': 1, 'viewing_time': 334401.09999996424}]"
sub_51,40055.0,{'Q0': 'no'},break,survey-text,0,40060,0.0-0.0,
sub_51,8680.600000023842,{'Q0': 'no\n'},break,survey-text,0,8686,0.0-0.0,
sub_51,10206.800000011921,{'Q0': 'no'},break,survey-text,0,10213,0.0-0.0,
sub_51,17628.399999976158,{'Q0': 'no'},break,survey-text,0,17634,0.0-0.0,
sub_51,86923.5,{'Q0': 'no'},break,survey-text,0,86947,0.0-0.0,
sub_51,8421.100000023842,{'Q0': 'no'},break,survey-text,0,8427,0.0-0.0,
sub_51,8556.199999988079,{'Q0': 'no'},break,survey-text,0,8562,0.0-0.0,
sub_52,12757.79999999702,{'Q0': 'no'},break,survey-text,0,12766,0.0-0.0,
sub_52,8263.0,{'Q0': 'no'},break,survey-text,0,8270,0.0-0.0,
sub_52,38085.60000000894,{'Q0': 'no'},break,survey-text,0,38099,0.0-0.0,
sub_52,31915.5,,,instructions,1,70016,0.0-1.0,"[{'page_index': 0, 'viewing_time': 14433.10000000894}, {'page_index': 1, 'viewing_time': 17481.09999999404}]"
sub_52,19778.79999999702,{'Q0': 'no'},break,survey-text,0,19786,0.0-0.0,
sub_52,17614.0,{'Q0': 'no'},break,survey-text,0,17620,0.0-0.0,
sub_52,22547.40000000596,{'Q0': 'no'},break,survey-text,0,22553,0.0-0.0,
sub_52,14207.60000000894,{'Q0': 'no'},break,survey-text,0,14214,0.0-0.0,
sub_52,14795.699999988079,{'Q0': 'no'},break,survey-text,0,14806,0.0-0.0,
sub_52,10162.70000000298,{'Q0': 'no'},break,survey-text,0,10169,0.0-0.0,
sub_52,9764.59999999404,{'Q0': 'no'},break,survey-text,0,9770,0.0-0.0,
sub_53,9790.5,{'Q0': 'no'},break,survey-text,0,9801,0.0-0.0,
sub_53,18722.59999999404,{'Q0': 'no'},break,survey-text,0,18730,0.0-0.0,
sub_53,29136.89999999106,{'Q0': 'no'},break,survey-text,0,29153,0.0-0.0,
sub_53,10802.20000000298,,,instructions,1,39957,0.0-1.0,"[{'page_index': 0, 'viewing_time': 4930.79999999702}, {'page_index': 1, 'viewing_time': 5870}]"
sub_53,56207.59999999404,{'Q0': 'no'},break,survey-text,0,56215,0.0-0.0,
sub_53,19945.30000001192,{'Q0': 'no'},break,survey-text,0,19955,0.0-0.0,
sub_53,8854.5,{'Q0': 'no'},break,survey-text,0,8864,0.0-0.0,
sub_53,19619.89999999106,{'Q0': 'no'},break,survey-text,0,19628,0.0-0.0,
sub_53,16930.5,{'Q0': 'no'},break,survey-text,0,16937,0.0-0.0,
sub_53,21032.5,{'Q0': 'no'},break,survey-text,0,21039,0.0-0.0,
sub_53,10522.89999999106,{'Q0': 'no'},break,survey-text,0,10530,0.0-0.0,
sub_54,17490.599999904633,"{'Q0': 'No, everything seemed to be fine. '}",break,survey-text,0,17505,0.0-0.0,
sub_54,28662.200000047684,{'Q0': 'No technical difficulties. '},break,survey-text,0,28668,0.0-0.0,
sub_54,32771.90000009537,{'Q0': 'No. '},break,survey-text,0,32786,0.0-0.0,
sub_54,101791.40000009537,,,instructions,1,134579,0.0-1.0,"[{'page_index': 0, 'viewing_time': 13281}, {'page_index': 1, 'viewing_time': 88509.09999990463}]"
sub_54,16056.299999952316,{'Q0': 'No difficulties.'},break,survey-text,0,16066,0.0-0.0,
sub_54,14347.900000095367,{'Q0': 'None'},break,survey-text,0,14354,0.0-0.0,
sub_54,7553.700000047684,{'Q0': 'None'},break,survey-text,0,7560,0.0-0.0,
sub_54,33050.39999985695,{'Q0': 'No'},break,survey-text,0,33057,0.0-0.0,
sub_54,11026.900000095367,{'Q0': 'No'},break,survey-text,0,11031,0.0-0.0,
sub_54,8458.099999904633,{'Q0': 'No'},break,survey-text,0,8464,0.0-0.0,
sub_54,8033.800000190735,{'Q0': 'No'},break,survey-text,0,8041,0.0-0.0,
sub_55,21298.5,{'Q0': 'no'},break,survey-text,0,21315,0.0-0.0,
sub_55,11591.899999976158,{'Q0': 'no'},break,survey-text,0,11603,0.0-0.0,
sub_55,35879.199999928474,{'Q0': 'no'},break,survey-text,0,35905,0.0-0.0,
sub_55,33935.0,,,instructions,1,69843,0.0-1.0,"[{'page_index': 0, 'viewing_time': 12252.5}, {'page_index': 1, 'viewing_time': 21679.400000095367}]"
sub_55,37888.300000071526,{'Q0': 'no'},break,survey-text,0,37898,0.0-0.0,
sub_55,8064.599999904633,{'Q0': 'no'},break,survey-text,0,8073,0.0-0.0,
sub_55,18675.5,{'Q0': 'no'},break,survey-text,0,18684,0.0-0.0,
sub_55,7664.100000023842,{'Q0': 'no'},break,survey-text,0,7676,0.0-0.0,
sub_55,7722.199999928474,{'Q0': 'no'},break,survey-text,0,7736,0.0-0.0,
sub_55,8384.599999904633,{'Q0': 'no'},break,survey-text,0,8395,0.0-0.0,
sub_55,7815.299999952316,{'Q0': 'no'},break,survey-text,0,7838,0.0-0.0,
sub_56,18517.200000047684,{'Q0': ''},break,survey-text,0,18525,0.0-0.0,
sub_56,30772.299999952316,{'Q0': '  '},break,survey-text,0,30777,0.0-0.0,
sub_56,54581.30000001192,{'Q0': ' '},break,survey-text,0,54587,0.0-0.0,
sub_56,56810.90000003576,,,instructions,1,111398,0.0-1.0,"[{'page_index': 0, 'viewing_time': 15708.300000011921}, {'page_index': 1, 'viewing_time': 41102.19999998808}]"
sub_56,19072.5,{'Q0': ''},break,survey-text,0,19078,0.0-0.0,
sub_56,30558.200000047684,{'Q0': ''},break,survey-text,0,30563,0.0-0.0,
sub_56,55970.700000047684,{'Q0': ''},break,survey-text,0,55976,0.0-0.0,
sub_56,13978.5,{'Q0': ''},break,survey-text,0,13983,0.0-0.0,
sub_56,14632.600000023842,{'Q0': ''},break,survey-text,0,14639,0.0-0.0,
sub_56,4910.800000011921,{'Q0': ''},break,survey-text,0,4915,0.0-0.0,
sub_56,8381.399999976158,{'Q0': ''},break,survey-text,0,8387,0.0-0.0,
sub_57,64375.0,{'Q0': 'No problems evident'},break,survey-text,0,64379,0.0-0.0,
sub_57,28098.600000023842,{'Q0': ''},break,survey-text,0,28101,0.0-0.0,
sub_57,42493.700000047684,{'Q0': ''},break,survey-text,0,42499,0.0-0.0,
sub_57,41185.799999952316,,,instructions,1,83684,0.0-1.0,"[{'page_index': 0, 'viewing_time': 16588.399999976158}, {'page_index': 1, 'viewing_time': 24596.699999928474}]"
sub_57,35410.90000009537,{'Q0': '\n'},break,survey-text,0,35414,0.0-0.0,
sub_57,25895.799999952316,{'Q0': ''},break,survey-text,0,25898,0.0-0.0,
sub_57,17750.699999928474,{'Q0': ''},break,survey-text,0,17754,0.0-0.0,
sub_57,14322.399999976158,{'Q0': ''},break,survey-text,0,14325,0.0-0.0,
sub_57,22850.600000023842,{'Q0': ''},break,survey-text,0,22854,0.0-0.0,
sub_57,16183.0,{'Q0': ''},break,survey-text,0,16186,0.0-0.0,
sub_57,6871.799999952316,{'Q0': ''},break,survey-text,0,6875,0.0-0.0,
sub_58,5725.100000008941,{'Q0': 'N/A'},break,survey-text,0,5736,0.0-0.0,
sub_58,4806.0999999940395,{'Q0': 'N/A'},break,survey-text,0,4814,0.0-0.0,
sub_58,40523.80000001192,{'Q0': 'N/A'},break,survey-text,0,40534,0.0-0.0,
sub_58,8343.70000000298,,,instructions,1,48878,0.0-1.0,"[{'page_index': 0, 'viewing_time': 4524.79999999702}, {'page_index': 1, 'viewing_time': 3817.9000000059605}]"
sub_58,15409.79999999702,{'Q0': 'N/A'},break,survey-text,0,15417,0.0-0.0,
sub_58,14354.90000000596,{'Q0': 'N/A'},break,survey-text,0,14363,0.0-0.0,
sub_58,134888.5,{'Q0': 'N/A'},break,survey-text,0,134892,0.0-0.0,
sub_58,29660.20000000298,{'Q0': 'The session took a little longer to load (the loading bar) but no other problems to report'},break,survey-text,0,29669,0.0-0.0,
sub_58,9492.59999999404,{'Q0': 'N/A'},break,survey-text,0,9503,0.0-0.0,
sub_58,4422.5,{'Q0': 'N/A'},break,survey-text,0,4430,0.0-0.0,
sub_58,7914.29999999702,{'Q0': 'N/A'},break,survey-text,0,7922,0.0-0.0,
sub_59,33520.0,{'Q0': 'no issues'},break,survey-text,0,33556,0.0-0.0,
sub_59,32691.0,{'Q0': 'no issues'},break,survey-text,0,32704,0.0-0.0,
sub_59,62189.0,{'Q0': 'no issues'},break,survey-text,0,62207,0.0-0.0,
sub_59,83741.0,,,instructions,1,145951,0.0-1.0,"[{'page_index': 0, 'viewing_time': 26831}, {'page_index': 1, 'viewing_time': 56909}]"
sub_59,28419.0,{'Q0': 'no issuses'},break,survey-text,0,28453,0.0-0.0,
sub_59,20570.0,{'Q0': 'no issues'},break,survey-text,0,20589,0.0-0.0,
sub_59,19421.0,{'Q0': 'no issues'},break,survey-text,0,19437,0.0-0.0,
sub_59,15009.0,{'Q0': 'no issues'},break,survey-text,0,15044,0.0-0.0,
sub_59,15801.0,{'Q0': 'no issues'},break,survey-text,0,15815,0.0-0.0,
sub_59,9557.0,{'Q0': 'no issues'},break,survey-text,0,9567,0.0-0.0,
sub_59,13324.0,{'Q0': 'no issues'},break,survey-text,0,13340,0.0-0.0,
sub_60,12896.5,{'Q0': 'no'},break,survey-text,0,12905,0.0-0.0,
sub_60,8259.800000071526,{'Q0': 'no'},break,survey-text,0,8262,0.0-0.0,
sub_60,27208.100000023842,{'Q0': 'no'},break,survey-text,0,27216,0.0-0.0,
sub_60,32375.100000023842,,,instructions,1,59592,0.0-1.0,"[{'page_index': 0, 'viewing_time': 18107.399999976158}, {'page_index': 1, 'viewing_time': 14266.5}]"
sub_60,35506.299999952316,{'Q0': 'no'},break,survey-text,0,35510,0.0-0.0,
sub_60,48862.60000002384,{'Q0': 'no'},break,survey-text,0,48866,0.0-0.0,
sub_60,53117.89999997616,{'Q0': 'no'},break,survey-text,0,53121,0.0-0.0,
sub_60,36303.60000002384,{'Q0': 'no'},break,survey-text,0,36307,0.0-0.0,
sub_60,45517.700000047684,{'Q0': 'no'},break,survey-text,0,45521,0.0-0.0,
sub_60,43322.700000047684,{'Q0': 'no'},break,survey-text,0,43327,0.0-0.0,
sub_60,5400.5,{'Q0': 'no'},break,survey-text,0,5406,0.0-0.0,
sub_61,12011.699999988079,{'Q0': 'none'},break,survey-text,0,12019,0.0-0.0,
sub_61,9393.199999988079,{'Q0': 'none'},break,survey-text,0,9397,0.0-0.0,
sub_61,13787.90000000596,{'Q0': ''},break,survey-text,0,13798,0.0-0.0,
sub_61,5976.0,,,instructions,1,19775,0.0-1.0,"[{'page_index': 0, 'viewing_time': 3295}, {'page_index': 1, 'viewing_time': 2679}]"
sub_61,42792.40000000596,{'Q0': ''},break,survey-text,0,42799,0.0-0.0,
sub_61,6926.5999999940395,{'Q0': ''},break,survey-text,0,6932,0.0-0.0,
sub_61,17585.90000000596,{'Q0': ''},break,survey-text,0,17592,0.0-0.0,
sub_61,3541.2000000178814,{'Q0': ''},break,survey-text,0,3546,0.0-0.0,
sub_61,5265.5,{'Q0': ''},break,survey-text,0,5271,0.0-0.0,
sub_61,7003.0999999940395,{'Q0': ''},break,survey-text,0,7012,0.0-0.0,
sub_61,10968.300000011921,{'Q0': ''},break,survey-text,0,10982,0.0-0.0,
sub_62,9467.10000000149,{'Q0': 'No'},break,survey-text,0,9471,0.0-0.0,
sub_62,4931.400000002235,{'Q0': ''},break,survey-text,0,4935,0.0-0.0,
sub_62,25094.300000000745,{'Q0': 'No'},break,survey-text,0,25100,0.0-0.0,
sub_62,11805.699999999255,,,instructions,1,36907,0.0-1.0,"[{'page_index': 0, 'viewing_time': 7635.89999999851}, {'page_index': 1, 'viewing_time': 4168.699999999255}]"
sub_62,7865.699999999255,{'Q0': ''},break,survey-text,0,7869,0.0-0.0,
sub_62,17504.800000000745,{'Q0': ''},break,survey-text,0,17509,0.0-0.0,
sub_62,5218.300000000745,{'Q0': ''},break,survey-text,0,5222,0.0-0.0,
sub_62,2697.900000002235,{'Q0': ''},break,survey-text,0,2701,0.0-0.0,
sub_62,1362.0999999977648,{'Q0': ''},break,survey-text,0,1365,0.0-0.0,
sub_62,2290.2999999970198,{'Q0': ''},break,survey-text,0,2293,0.0-0.0,
sub_62,1763.0999999977648,{'Q0': ''},break,survey-text,0,1765,0.0-0.0,
sub_63,15680.09999999404,{'Q0': 'No'},break,survey-text,0,15683,0.0-0.0,
sub_63,16918.40000000596,{'Q0': 'No'},break,survey-text,0,16921,0.0-0.0,
sub_63,18878.89999999106,{'Q0': 'No'},break,survey-text,0,18885,0.0-0.0,
sub_63,66000.40000000596,,,instructions,1,84885,0.0-1.0,"[{'page_index': 0, 'viewing_time': 6197}, {'page_index': 1, 'viewing_time': 59803}]"
sub_63,24860.0,{'Q0': 'No'},break,survey-text,0,24862,0.0-0.0,
sub_63,14407.09999999404,{'Q0': 'Nope'},break,survey-text,0,14409,0.0-0.0,
sub_63,15060.40000000596,{'Q0': 'Nah'},break,survey-text,0,15062,0.0-0.0,
sub_63,44473.29999999702,{'Q0': 'No'},break,survey-text,0,44475,0.0-0.0,
sub_63,28662.0,{'Q0': ''},break,survey-text,0,28664,0.0-0.0,
sub_63,21124.89999999106,{'Q0': 'No'},break,survey-text,0,21127,0.0-0.0,
sub_63,2483.7000000029802,{'Q0': ''},break,survey-text,0,2486,0.0-0.0,
sub_64,29883.5,{'Q0': 'no'},break,survey-text,0,29892,0.0-0.0,
sub_64,12645.900000035763,{'Q0': 'no'},break,survey-text,0,12653,0.0-0.0,
sub_64,90132.30000001192,{'Q0': 'no'},break,survey-text,0,90148,0.0-0.0,
sub_64,12611.0,,,instructions,1,102760,0.0-1.0,"[{'page_index': 0, 'viewing_time': 9851.099999964237}, {'page_index': 1, 'viewing_time': 2758.199999988079}]"
sub_64,43231.69999998808,{'Q0': 'yes on 3 or 4 of them i was pressing the button but it said i missed it but i didnt'},break,survey-text,0,43238,0.0-0.0,
sub_64,31898.100000023842,{'Q0': 'no not this time it worked fine'},break,survey-text,0,31904,0.0-0.0,
sub_64,15739.0,{'Q0': 'no issues'},break,survey-text,0,15746,0.0-0.0,
sub_64,14303.0,{'Q0': 'no issue. '},break,survey-text,0,14310,0.0-0.0,
sub_64,25191.100000023842,{'Q0': 'no issue. i have tried my best but its harder than i thought'},break,survey-text,0,25199,0.0-0.0,
sub_64,5976.100000023842,{'Q0': 'no'},break,survey-text,0,5981,0.0-0.0,
sub_64,14234.100000023842,{'Q0': 'no everything was ok. '},break,survey-text,0,14243,0.0-0.0,
sub_65,11751.700000047684,{'Q0': ''},break,survey-text,0,11761,0.0-0.0,
sub_65,10591.5,{'Q0': ''},break,survey-text,0,10602,0.0-0.0,
sub_65,25435.10000014305,{'Q0': ''},break,survey-text,0,25449,0.0-0.0,
sub_65,30182.60000014305,,,instructions,1,55633,0.0-1.0,"[{'page_index': 0, 'viewing_time': 12697.900000095367}, {'page_index': 1, 'viewing_time': 17483.5}]"
sub_65,16482.299999952316,{'Q0': ''},break,survey-text,0,16488,0.0-0.0,
sub_65,5138.599999904633,{'Q0': ''},break,survey-text,0,5145,0.0-0.0,
sub_65,6862.099999904633,{'Q0': ''},break,survey-text,0,6869,0.0-0.0,
sub_65,11200.5,{'Q0': ''},break,survey-text,0,11209,0.0-0.0,
sub_65,18107.0,{'Q0': ''},break,survey-text,0,18112,0.0-0.0,
sub_65,6821.300000190735,{'Q0': ''},break,survey-text,0,6827,0.0-0.0,
sub_65,4704.299999952316,{'Q0': ''},break,survey-text,0,4713,0.0-0.0,
sub_66,5079.5,{'Q0': ''},break,survey-text,0,5099,0.0-0.0,
sub_66,4950.200000047684,{'Q0': ''},break,survey-text,0,4954,0.0-0.0,
sub_66,56140.10000002384,{'Q0': ''},break,survey-text,0,56149,0.0-0.0,
sub_66,45414.5,,,instructions,1,101564,0.0-1.0,"[{'page_index': 0, 'viewing_time': 21089.700000047684}, {'page_index': 1, 'viewing_time': 24323.899999976158}]"
sub_66,16396.5,{'Q0': ''},break,survey-text,0,16402,0.0-0.0,
sub_66,10324.699999928474,{'Q0': ''},break,survey-text,0,10328,0.0-0.0,
sub_66,18349.899999976158,{'Q0': ''},break,survey-text,0,18354,0.0-0.0,
sub_66,7309.400000095367,{'Q0': ''},break,survey-text,0,7314,0.0-0.0,
sub_66,73406.89999997616,{'Q0': ''},break,survey-text,0,73412,0.0-0.0,
sub_66,5927.5,{'Q0': ''},break,survey-text,0,5932,0.0-0.0,
sub_66,3321.3000000715256,{'Q0': ''},break,survey-text,0,3325,0.0-0.0,
sub_67,20504.299999952316,{'Q0': 'no'},break,survey-text,0,20512,0.0-0.0,
sub_67,18649.700000047684,{'Q0': 'no'},break,survey-text,0,18664,0.0-0.0,
sub_67,43836.89999997616,{'Q0': 'no'},break,survey-text,0,43852,0.0-0.0,
sub_67,43599.39999997616,,,instructions,1,87454,0.0-1.0,"[{'page_index': 0, 'viewing_time': 12337.600000023842}, {'page_index': 1, 'viewing_time': 31260.599999904633}]"
sub_67,13910.700000047684,{'Q0': 'no'},break,survey-text,0,13919,0.0-0.0,
sub_67,17296.299999952316,{'Q0': 'no'},break,survey-text,0,17308,0.0-0.0,
sub_67,17677.5,{'Q0': ''},break,survey-text,0,17691,0.0-0.0,
sub_67,11139.799999952316,{'Q0': 'no'},break,survey-text,0,11151,0.0-0.0,
sub_67,15353.0,{'Q0': 'no'},break,survey-text,0,15366,0.0-0.0,
sub_67,16154.600000023842,{'Q0': 'no'},break,survey-text,0,16167,0.0-0.0,
sub_67,10397.100000023842,{'Q0': 'no'},break,survey-text,0,10404,0.0-0.0,
sub_68,63178.300000000745,"{'Q0': 'No, everything went very smoothly!'}",break,survey-text,0,63184,0.0-0.0,
sub_68,15342.60000000149,{'Q0': ''},break,survey-text,0,15347,0.0-0.0,
sub_68,135704.19999999925,{'Q0': ''},break,survey-text,0,135712,0.0-0.0,
sub_68,20082.599999999627,,,instructions,1,155796,0.0-1.0,"[{'page_index': 0, 'viewing_time': 5662.4000000003725}, {'page_index': 1, 'viewing_time': 14419.39999999851}]"
sub_68,16071.599999999627,{'Q0': ''},break,survey-text,0,16076,0.0-0.0,
sub_68,6613.89999999851,{'Q0': ''},break,survey-text,0,6618,0.0-0.0,
sub_68,6156.799999998882,{'Q0': ''},break,survey-text,0,6170,0.0-0.0,
sub_68,11762.400000000373,{'Q0': ''},break,survey-text,0,11773,0.0-0.0,
sub_68,8993.800000000745,{'Q0': ''},break,survey-text,0,9002,0.0-0.0,
sub_68,3416.4000000003725,{'Q0': ''},break,survey-text,0,3420,0.0-0.0,
sub_68,4296.799999998882,{'Q0': ''},break,survey-text,0,4301,0.0-0.0,
