prolific_id,counterbalancing,rt,stimulus,response,trial_stage,trial_index,time_elapsed,cb_condition,correct_response,session,correct,stim_val,dist_from_prev,dist_abs_from_prev
selftest,dense_right,,img/object-9_120-levels_1D/object9F0Level111F1Level40.png,,exemplar_display,2,4161,dense_right,,1,,111,,
selftest,dense_right,1684.2999999523163,img/object-9_120-levels_1D/object9F0Level87F1Level40.png,p,exemplar_display,4,6684,dense_right,p,1,True,87,-24.0,24.0
selftest,dense_right,926.6000000238419,img/object-9_120-levels_1D/object9F0Level83F1Level40.png,p,exemplar_display,6,9210,dense_right,p,1,True,83,-4.0,4.0
selftest,dense_right,1705.0,img/object-9_120-levels_1D/object9F0Level85F1Level40.png,q,exemplar_display,8,11734,dense_right,p,1,False,85,2.0,2.0
selftest,dense_right,1385.1000000238419,img/object-9_120-levels_1D/object9F0Level105F1Level40.png,p,exemplar_display,10,14259,dense_right,p,1,True,105,20.0,20.0
selftest,dense_right,1467.5,img/object-9_120-levels_1D/object9F0Level93F1Level40.png,p,exemplar_display,12,16784,dense_right,p,1,True,93,-12.0,12.0
selftest,dense_right,538.3000000715256,img/object-9_120-levels_1D/object9F0Level101F1Level40.png,p,exemplar_display,14,19314,dense_right,p,1,True,101,8.0,8.0
selftest,dense_right,966.1999999284744,img/object-9_120-levels_1D/object9F0Level89F1Level40.png,p,exemplar_display,16,21835,dense_right,p,1,True,89,-12.0,12.0
selftest,dense_right,936.8999999761581,img/object-9_120-levels_1D/object9F0Level115F1Level40.png,p,exemplar_display,18,24364,dense_right,p,1,True,115,26.0,26.0
selftest,dense_right,2268.100000023842,img/object-9_120-levels_1D/object9F0Level101F1Level40.png,q,exemplar_display,20,27147,dense_right,p,1,False,101,-14.0,14.0
selftest,dense_right,688.5,img/object-9_120-levels_1D/object9F0Level111F1Level40.png,q,exemplar_display,22,29670,dense_right,p,1,False,111,10.0,10.0
selftest,dense_right,725.0,img/object-9_120-levels_1D/object9F0Level85F1Level40.png,p,exemplar_display,24,32174,dense_right,p,1,True,85,-26.0,26.0
selftest,dense_right,1875.0,img/object-9_120-levels_1D/object9F0Level95F1Level40.png,p,exemplar_display,26,34681,dense_right,p,1,True,95,10.0,10.0
selftest,dense_right,1119.0,img/object-9_120-levels_1D/object9F0Level101F1Level40.png,q,exemplar_display,28,37187,dense_right,p,1,False,101,6.0,6.0
selftest,dense_right,826.6000000238419,img/object-9_120-levels_1D/object9F0Level97F1Level40.png,p,exemplar_display,30,39695,dense_right,p,1,True,97,-4.0,4.0
selftest,dense_right,1716.1999999284744,img/object-9_120-levels_1D/object9F0Level97F1Level40.png,p,exemplar_display,32,42199,dense_right,q,1,False,97,0.0,0.0
selftest,dense_right,1994.6999999284744,img/object-9_120-levels_1D/object9F0Level91F1Level40.png,p,exemplar_display,34,44704,dense_right,p,1,True,91,-6.0,6.0
selftest,dense_right,979.0,img/object-9_120-levels_1D/object9F0Level101F1Level40.png,p,exemplar_display,36,47208,dense_right,p,1,True,101,10.0,10.0
selftest,dense_right,1703.7999999523163,img/object-9_120-levels_1D/object9F0Level101F1Level40.png,p,exemplar_display,38,49726,dense_right,q,1,False,101,0.0,0.0
selftest,dense_right,2417.899999976158,img/object-9_120-levels_1D/object9F0Level91F1Level40.png,p,exemplar_display,40,52649,dense_right,p,1,True,91,-10.0,10.0
selftest,dense_right,1145.5,img/object-9_120-levels_1D/object9F0Level81F1Level40.png,p,exemplar_display,42,55160,dense_right,p,1,True,81,-10.0,10.0
selftest,dense_right,873.1000000238419,img/object-9_120-levels_1D/object9F0Level115F1Level40.png,p,exemplar_display,44,57665,dense_right,p,1,True,115,34.0,34.0
selftest,dense_right,664.0,img/object-9_120-levels_1D/object9F0Level85F1Level40.png,p,exemplar_display,46,60170,dense_right,p,1,True,85,-30.0,30.0
selftest,dense_right,,img/object-9_120-levels_1D/object9F0Level85F1Level40.png,,exemplar_display,48,63674,dense_right,q,1,False,85,0.0,0.0
selftest,dense_right,1198.6000000238419,img/object-9_120-levels_1D/object9F0Level91F1Level40.png,p,exemplar_display,50,66179,dense_right,p,1,True,91,6.0,6.0
selftest,dense_right,1213.3999999761581,img/object-9_120-levels_1D/object9F0Level91F1Level40.png,p,exemplar_display,52,68685,dense_right,q,1,False,91,0.0,0.0
selftest,dense_right,1173.2000000476837,img/object-9_120-levels_1D/object9F0Level117F1Level40.png,p,exemplar_display,54,71189,dense_right,p,1,True,117,26.0,26.0
selftest,dense_right,831.2999999523163,img/object-9_120-levels_1D/object9F0Level97F1Level40.png,p,exemplar_display,56,73715,dense_right,p,1,True,97,-20.0,20.0
selftest,dense_right,2485.899999976158,img/object-9_120-levels_1D/object9F0Level103F1Level40.png,q,exemplar_display,58,76705,dense_right,p,1,False,103,6.0,6.0
selftest,dense_right,1278.8000000715256,img/object-9_120-levels_1D/object9F0Level103F1Level40.png,q,exemplar_display,60,79211,dense_right,q,1,True,103,0.0,0.0
selftest,dense_right,1235.5,img/object-9_120-levels_1D/object9F0Level83F1Level40.png,p,exemplar_display,62,81718,dense_right,p,1,True,83,-20.0,20.0
selftest,dense_right,901.0,img/object-9_120-levels_1D/object9F0Level115F1Level40.png,p,exemplar_display,64,84222,dense_right,p,1,True,115,32.0,32.0
selftest,dense_right,2137.1999999284744,img/object-9_120-levels_1D/object9F0Level99F1Level40.png,q,exemplar_display,66,86865,dense_right,p,1,False,99,-16.0,16.0
selftest,dense_right,2033.1000000238419,img/object-9_120-levels_1D/object9F0Level99F1Level40.png,p,exemplar_display,68,89402,dense_right,q,1,False,99,0.0,0.0
selftest,dense_right,1967.5,img/object-9_120-levels_1D/object9F0Level95F1Level40.png,q,exemplar_display,70,91908,dense_right,p,1,False,95,-4.0,4.0
selftest,dense_right,1860.1000000238419,img/object-9_120-levels_1D/object9F0Level105F1Level40.png,q,exemplar_display,72,94430,dense_right,p,1,False,105,10.0,10.0
selftest,dense_right,786.1999999284744,img/object-9_120-levels_1D/object9F0Level89F1Level40.png,p,exemplar_display,74,96936,dense_right,p,1,True,89,-16.0,16.0
selftest,dense_right,2424.0999999046326,img/object-9_120-levels_1D/object9F0Level103F1Level40.png,p,exemplar_display,76,99865,dense_right,p,1,True,103,14.0,14.0
selftest,dense_right,1859.8999999761581,img/object-9_120-levels_1D/object9F0Level103F1Level40.png,q,exemplar_display,78,102373,dense_right,q,1,True,103,0.0,0.0
selftest,dense_right,2211.8000000715256,img/object-9_120-levels_1D/object9F0Level111F1Level40.png,q,exemplar_display,80,105090,dense_right,p,1,False,111,8.0,8.0
selftest,dense_right,2743.7000000476837,img/object-9_120-levels_1D/object9F0Level105F1Level40.png,q,exemplar_display,82,108336,dense_right,p,1,False,105,-6.0,6.0
selftest,dense_right,1746.5,img/object-9_120-levels_1D/object9F0Level109F1Level40.png,q,exemplar_display,84,110841,dense_right,p,1,False,109,4.0,4.0
selftest,dense_right,,img/object-9_120-levels_1D/object9F0Level89F1Level40.png,,exemplar_display,2,4140,dense_right,p,2,,89,-20.0,20.0
selftest,dense_right,922.2999999523163,img/object-9_120-levels_1D/object9F0Level103F1Level40.png,p,exemplar_display,4,6670,dense_right,p,2,True,103,14.0,14.0
selftest,dense_right,771.2000000476837,img/object-9_120-levels_1D/object9F0Level85F1Level40.png,p,exemplar_display,6,9187,dense_right,p,2,True,85,-18.0,18.0
selftest,dense_right,706.2000000476837,img/object-9_120-levels_1D/object9F0Level117F1Level40.png,p,exemplar_display,8,11715,dense_right,p,2,True,117,32.0,32.0
selftest,dense_right,1089.4000000953674,img/object-9_120-levels_1D/object9F0Level77F1Level40.png,p,exemplar_display,10,14241,dense_right,p,2,True,77,-40.0,40.0
selftest,dense_right,1332.2999999523163,img/object-9_120-levels_1D/object9F0Level77F1Level40.png,q,exemplar_display,12,16763,dense_right,q,2,True,77,0.0,0.0
selftest,dense_right,680.3999999761581,img/object-9_120-levels_1D/object9F0Level87F1Level40.png,p,exemplar_display,14,19289,dense_right,p,2,True,87,10.0,10.0
selftest,dense_right,1544.6000000238419,img/object-9_120-levels_1D/object9F0Level91F1Level40.png,q,exemplar_display,16,21816,dense_right,p,2,False,91,4.0,4.0
selftest,dense_right,1261.2000000476837,img/object-9_120-levels_1D/object9F0Level79F1Level40.png,p,exemplar_display,18,24343,dense_right,p,2,True,79,-12.0,12.0
selftest,dense_right,1616.7000000476837,img/object-9_120-levels_1D/object9F0Level113F1Level40.png,p,exemplar_display,20,26856,dense_right,p,2,True,113,34.0,34.0
selftest,dense_right,1181.6000000238419,img/object-9_120-levels_1D/object9F0Level79F1Level40.png,p,exemplar_display,22,29382,dense_right,p,2,True,79,-34.0,34.0
selftest,dense_right,973.1000000238419,img/object-9_120-levels_1D/object9F0Level107F1Level40.png,p,exemplar_display,24,31885,dense_right,p,2,True,107,28.0,28.0
selftest,dense_right,836.2000000476837,img/object-9_120-levels_1D/object9F0Level107F1Level40.png,q,exemplar_display,26,34390,dense_right,q,2,True,107,0.0,0.0
selftest,dense_right,690.3999999761581,img/object-9_120-levels_1D/object9F0Level81F1Level40.png,p,exemplar_display,28,36895,dense_right,p,2,True,81,-26.0,26.0
selftest,dense_right,2114.7999999523163,img/object-9_120-levels_1D/object9F0Level95F1Level40.png,q,exemplar_display,30,39513,dense_right,p,2,False,95,14.0,14.0
selftest,dense_right,1662.1999999284744,img/object-9_120-levels_1D/object9F0Level89F1Level40.png,p,exemplar_display,32,42020,dense_right,p,2,True,89,-6.0,6.0
selftest,dense_right,1676.8000000715256,img/object-9_120-levels_1D/object9F0Level89F1Level40.png,p,exemplar_display,34,44525,dense_right,q,2,False,89,0.0,0.0
selftest,dense_right,853.0,img/object-9_120-levels_1D/object9F0Level115F1Level40.png,p,exemplar_display,36,47028,dense_right,p,2,True,115,26.0,26.0
selftest,dense_right,683.3000000715256,img/object-9_120-levels_1D/object9F0Level101F1Level40.png,p,exemplar_display,38,49535,dense_right,p,2,True,101,-14.0,14.0
selftest,dense_right,526.7999999523163,img/object-9_120-levels_1D/object9F0Level97F1Level40.png,p,exemplar_display,40,52044,dense_right,p,2,True,97,-4.0,4.0
selftest,dense_right,547.9000000953674,img/object-9_120-levels_1D/object9F0Level89F1Level40.png,p,exemplar_display,42,54550,dense_right,p,2,True,89,-8.0,8.0
selftest,dense_right,1403.0,img/object-9_120-levels_1D/object9F0Level105F1Level40.png,p,exemplar_display,44,57055,dense_right,p,2,True,105,16.0,16.0
selftest,dense_right,1058.2999999523163,img/object-9_120-levels_1D/object9F0Level105F1Level40.png,q,exemplar_display,46,59559,dense_right,q,2,True,105,0.0,0.0
selftest,dense_right,644.3999999761581,img/object-9_120-levels_1D/object9F0Level89F1Level40.png,p,exemplar_display,48,62063,dense_right,p,2,True,89,-16.0,16.0
selftest,dense_right,2153.7000000476837,img/object-9_120-levels_1D/object9F0Level99F1Level40.png,q,exemplar_display,50,64721,dense_right,p,2,False,99,10.0,10.0
selftest,dense_right,2038.2000000476837,img/object-9_120-levels_1D/object9F0Level91F1Level40.png,p,exemplar_display,52,67264,dense_right,p,2,True,91,-8.0,8.0
selftest,dense_right,1271.7000000476837,img/object-9_120-levels_1D/object9F0Level93F1Level40.png,p,exemplar_display,54,69770,dense_right,p,2,True,93,2.0,2.0
selftest,dense_right,1717.8999999761581,img/object-9_120-levels_1D/object9F0Level87F1Level40.png,q,exemplar_display,56,72291,dense_right,p,2,False,87,-6.0,6.0
selftest,dense_right,950.7000000476837,img/object-9_120-levels_1D/object9F0Level105F1Level40.png,p,exemplar_display,58,74794,dense_right,p,2,True,105,18.0,18.0
selftest,dense_right,1156.4000000953674,img/object-9_120-levels_1D/object9F0Level115F1Level40.png,p,exemplar_display,60,77301,dense_right,p,2,True,115,10.0,10.0
selftest,dense_right,1258.7999999523163,img/object-9_120-levels_1D/object9F0Level115F1Level40.png,q,exemplar_display,62,79807,dense_right,q,2,True,115,0.0,0.0
selftest,dense_right,953.8000000715256,img/object-9_120-levels_1D/object9F0Level79F1Level40.png,p,exemplar_display,64,82313,dense_right,p,2,True,79,-36.0,36.0
selftest,dense_right,2103.7000000476837,img/object-9_120-levels_1D/object9F0Level117F1Level40.png,p,exemplar_display,66,84922,dense_right,p,2,True,117,38.0,38.0
selftest,dense_right,958.6000000238419,img/object-9_120-levels_1D/object9F0Level107F1Level40.png,q,exemplar_display,68,87427,dense_right,p,2,False,107,-10.0,10.0
selftest,dense_right,830.5,img/object-9_120-levels_1D/object9F0Level109F1Level40.png,q,exemplar_display,70,89932,dense_right,p,2,False,109,2.0,2.0
selftest,dense_right,549.1000000238419,img/object-9_120-levels_1D/object9F0Level87F1Level40.png,p,exemplar_display,72,92436,dense_right,p,2,True,87,-22.0,22.0
selftest,dense_right,1188.3999999761581,img/object-9_120-levels_1D/object9F0Level97F1Level40.png,p,exemplar_display,74,94943,dense_right,p,2,True,97,10.0,10.0
selftest,dense_right,1150.8999999761581,img/object-9_120-levels_1D/object9F0Level85F1Level40.png,p,exemplar_display,76,97451,dense_right,p,2,True,85,-12.0,12.0
selftest,dense_right,548.1999999284744,img/object-9_120-levels_1D/object9F0Level117F1Level40.png,p,exemplar_display,78,99957,dense_right,p,2,True,117,32.0,32.0
selftest,dense_right,1932.0,img/object-9_120-levels_1D/object9F0Level111F1Level40.png,q,exemplar_display,80,102462,dense_right,p,2,False,111,-6.0,6.0
selftest,dense_right,545.5,img/object-9_120-levels_1D/object9F0Level81F1Level40.png,p,exemplar_display,82,104968,dense_right,p,2,True,81,-30.0,30.0
selftest,dense_right,1944.6000000238419,img/object-9_120-levels_1D/object9F0Level107F1Level40.png,p,exemplar_display,84,107473,dense_right,p,2,True,107,26.0,26.0
selftest,dense_right,,img/object-9_120-levels_1D/object9F0Level97F1Level40.png,,exemplar_display,2,4147,dense_right,p,3,,97,-10.0,10.0
selftest,dense_right,1823.7000000476837,img/object-9_120-levels_1D/object9F0Level99F1Level40.png,p,exemplar_display,4,6679,dense_right,p,3,True,99,2.0,2.0
selftest,dense_right,1442.8999999761581,img/object-9_120-levels_1D/object9F0Level81F1Level40.png,p,exemplar_display,6,9199,dense_right,p,3,True,81,-18.0,18.0
selftest,dense_right,669.0,img/object-9_120-levels_1D/object9F0Level103F1Level40.png,p,exemplar_display,8,11724,dense_right,p,3,True,103,22.0,22.0
selftest,dense_right,1288.8000000715256,img/object-9_120-levels_1D/object9F0Level85F1Level40.png,q,exemplar_display,10,14251,dense_right,p,3,False,85,-18.0,18.0
selftest,dense_right,700.6000000238419,img/object-9_120-levels_1D/object9F0Level77F1Level40.png,p,exemplar_display,12,16781,dense_right,p,3,True,77,-8.0,8.0
selftest,dense_right,1308.8000000715256,img/object-9_120-levels_1D/object9F0Level95F1Level40.png,p,exemplar_display,14,19308,dense_right,p,3,True,95,18.0,18.0
selftest,dense_right,1702.2000000476837,img/object-9_120-levels_1D/object9F0Level95F1Level40.png,q,exemplar_display,16,21836,dense_right,q,3,True,95,0.0,0.0
selftest,dense_right,927.3999999761581,img/object-9_120-levels_1D/object9F0Level107F1Level40.png,q,exemplar_display,18,24361,dense_right,p,3,False,107,12.0,12.0
selftest,dense_right,810.9000000953674,img/object-9_120-levels_1D/object9F0Level115F1Level40.png,q,exemplar_display,20,26887,dense_right,p,3,False,115,8.0,8.0
selftest,dense_right,589.1000000238419,img/object-9_120-levels_1D/object9F0Level79F1Level40.png,p,exemplar_display,22,29408,dense_right,p,3,True,79,-36.0,36.0
selftest,dense_right,964.6999999284744,img/object-9_120-levels_1D/object9F0Level107F1Level40.png,p,exemplar_display,24,31915,dense_right,p,3,True,107,28.0,28.0
selftest,dense_right,932.1000000238419,img/object-9_120-levels_1D/object9F0Level87F1Level40.png,p,exemplar_display,26,34419,dense_right,p,3,True,87,-20.0,20.0
selftest,dense_right,964.7000000476837,img/object-9_120-levels_1D/object9F0Level91F1Level40.png,q,exemplar_display,28,36922,dense_right,p,3,False,91,4.0,4.0
selftest,dense_right,604.3999999761581,img/object-9_120-levels_1D/object9F0Level77F1Level40.png,p,exemplar_display,30,39426,dense_right,p,3,True,77,-14.0,14.0
selftest,dense_right,2466.6999999284744,img/object-9_120-levels_1D/object9F0Level103F1Level40.png,p,exemplar_display,32,42398,dense_right,p,3,True,103,26.0,26.0
selftest,dense_right,1209.3999999761581,img/object-9_120-levels_1D/object9F0Level99F1Level40.png,p,exemplar_display,34,44902,dense_right,p,3,True,99,-4.0,4.0
selftest,dense_right,1488.3000000715256,img/object-9_120-levels_1D/object9F0Level103F1Level40.png,q,exemplar_display,36,47408,dense_right,p,3,False,103,4.0,4.0
selftest,dense_right,1084.5,img/object-9_120-levels_1D/object9F0Level117F1Level40.png,p,exemplar_display,38,49915,dense_right,p,3,True,117,14.0,14.0
selftest,dense_right,755.7000000476837,img/object-9_120-levels_1D/object9F0Level81F1Level40.png,p,exemplar_display,40,52420,dense_right,p,3,True,81,-36.0,36.0
selftest,dense_right,1183.8999999761581,img/object-9_120-levels_1D/object9F0Level83F1Level40.png,p,exemplar_display,42,54927,dense_right,p,3,True,83,2.0,2.0
selftest,dense_right,1245.5,img/object-9_120-levels_1D/object9F0Level83F1Level40.png,q,exemplar_display,44,57433,dense_right,q,3,True,83,0.0,0.0
selftest,dense_right,709.3999999761581,img/object-9_120-levels_1D/object9F0Level101F1Level40.png,p,exemplar_display,46,59937,dense_right,p,3,True,101,18.0,18.0
selftest,dense_right,1502.2999999523163,img/object-9_120-levels_1D/object9F0Level105F1Level40.png,q,exemplar_display,48,62441,dense_right,p,3,False,105,4.0,4.0
selftest,dense_right,1947.5999999046326,img/object-9_120-levels_1D/object9F0Level105F1Level40.png,q,exemplar_display,50,64947,dense_right,q,3,True,105,0.0,0.0
selftest,dense_right,834.0,img/object-9_120-levels_1D/object9F0Level77F1Level40.png,p,exemplar_display,52,67453,dense_right,p,3,True,77,-28.0,28.0
selftest,dense_right,802.1999999284744,img/object-9_120-levels_1D/object9F0Level115F1Level40.png,p,exemplar_display,54,69957,dense_right,p,3,True,115,38.0,38.0
selftest,dense_right,759.2999999523163,img/object-9_120-levels_1D/object9F0Level115F1Level40.png,q,exemplar_display,56,72464,dense_right,q,3,True,115,0.0,0.0
selftest,dense_right,631.6000000238419,img/object-9_120-levels_1D/object9F0Level77F1Level40.png,p,exemplar_display,58,74976,dense_right,p,3,True,77,-38.0,38.0
selftest,dense_right,1673.8000000715256,img/object-9_120-levels_1D/object9F0Level101F1Level40.png,p,exemplar_display,60,77485,dense_right,p,3,True,101,24.0,24.0
selftest,dense_right,1000.8999999761581,img/object-9_120-levels_1D/object9F0Level111F1Level40.png,p,exemplar_display,62,79990,dense_right,p,3,True,111,10.0,10.0
selftest,dense_right,489.39999997615814,img/object-9_120-levels_1D/object9F0Level111F1Level40.png,p,exemplar_display,64,82495,dense_right,q,3,False,111,0.0,0.0
selftest,dense_right,1024.2999999523163,img/object-9_120-levels_1D/object9F0Level101F1Level40.png,q,exemplar_display,66,85000,dense_right,p,3,False,101,-10.0,10.0
selftest,dense_right,2150.5,img/object-9_120-levels_1D/object9F0Level113F1Level40.png,p,exemplar_display,68,87654,dense_right,p,3,True,113,12.0,12.0
selftest,dense_right,906.5,img/object-9_120-levels_1D/object9F0Level101F1Level40.png,p,exemplar_display,70,90157,dense_right,p,3,True,101,-12.0,12.0
selftest,dense_right,1111.0,img/object-9_120-levels_1D/object9F0Level111F1Level40.png,q,exemplar_display,72,92663,dense_right,p,3,False,111,10.0,10.0
selftest,dense_right,877.5,img/object-9_120-levels_1D/object9F0Level113F1Level40.png,q,exemplar_display,74,95168,dense_right,p,3,False,113,2.0,2.0
selftest,dense_right,1318.9000000953674,img/object-9_120-levels_1D/object9F0Level103F1Level40.png,q,exemplar_display,76,97672,dense_right,p,3,False,103,-10.0,10.0
selftest,dense_right,2768.7999999523163,img/object-9_120-levels_1D/object9F0Level99F1Level40.png,q,exemplar_display,78,100944,dense_right,p,3,False,99,-4.0,4.0
selftest,dense_right,604.4000000953674,img/object-9_120-levels_1D/object9F0Level77F1Level40.png,p,exemplar_display,80,103459,dense_right,p,3,True,77,-22.0,22.0
selftest,dense_right,1555.6000000238419,img/object-9_120-levels_1D/object9F0Level89F1Level40.png,p,exemplar_display,82,105965,dense_right,p,3,True,89,12.0,12.0
selftest,dense_right,961.5,img/object-9_120-levels_1D/object9F0Level97F1Level40.png,q,exemplar_display,84,108469,dense_right,p,3,False,97,8.0,8.0
selftest,dense_right,,img/object-9_120-levels_1D/object9F0Level97F1Level40.png,,exemplar_display,2,4156,dense_right,q,4,,97,0.0,0.0
selftest,dense_right,1031.5,img/object-9_120-levels_1D/object9F0Level79F1Level40.png,p,exemplar_display,4,6678,dense_right,p,4,True,79,-18.0,18.0
selftest,dense_right,957.6999999284744,img/object-9_120-levels_1D/object9F0Level83F1Level40.png,q,exemplar_display,6,9199,dense_right,p,4,False,83,4.0,4.0
selftest,dense_right,541.4000000953674,img/object-9_120-levels_1D/object9F0Level113F1Level40.png,p,exemplar_display,8,11719,dense_right,p,4,True,113,30.0,30.0
selftest,dense_right,599.6999999284744,img/object-9_120-levels_1D/object9F0Level109F1Level40.png,p,exemplar_display,10,14244,dense_right,p,4,True,109,-4.0,4.0
selftest,dense_right,1354.5,img/object-9_120-levels_1D/object9F0Level95F1Level40.png,p,exemplar_display,12,16761,dense_right,p,4,True,95,-14.0,14.0
selftest,dense_right,656.8000000715256,img/object-9_120-levels_1D/object9F0Level81F1Level40.png,p,exemplar_display,14,19286,dense_right,p,4,True,81,-14.0,14.0
selftest,dense_right,624.5,img/object-9_120-levels_1D/object9F0Level113F1Level40.png,p,exemplar_display,16,21805,dense_right,p,4,True,113,32.0,32.0
selftest,dense_right,668.8999999761581,img/object-9_120-levels_1D/object9F0Level91F1Level40.png,p,exemplar_display,18,24328,dense_right,p,4,True,91,-22.0,22.0
selftest,dense_right,1408.5,img/object-9_120-levels_1D/object9F0Level105F1Level40.png,q,exemplar_display,20,26847,dense_right,p,4,False,105,14.0,14.0
selftest,dense_right,601.7000000476837,img/object-9_120-levels_1D/object9F0Level113F1Level40.png,p,exemplar_display,22,29379,dense_right,p,4,True,113,8.0,8.0
selftest,dense_right,690.1999999284744,img/object-9_120-levels_1D/object9F0Level93F1Level40.png,p,exemplar_display,24,31885,dense_right,p,4,True,93,-20.0,20.0
selftest,dense_right,2440.2999999523163,img/object-9_120-levels_1D/object9F0Level87F1Level40.png,p,exemplar_display,26,34832,dense_right,p,4,True,87,-6.0,6.0
selftest,dense_right,1228.6000000238419,img/object-9_120-levels_1D/object9F0Level87F1Level40.png,p,exemplar_display,28,37337,dense_right,q,4,False,87,0.0,0.0
selftest,dense_right,831.1000000238419,img/object-9_120-levels_1D/object9F0Level79F1Level40.png,p,exemplar_display,30,39839,dense_right,p,4,True,79,-8.0,8.0
selftest,dense_right,638.8999999761581,img/object-9_120-levels_1D/object9F0Level107F1Level40.png,p,exemplar_display,32,42345,dense_right,p,4,True,107,28.0,28.0
selftest,dense_right,1225.1999999284744,img/object-9_120-levels_1D/object9F0Level91F1Level40.png,p,exemplar_display,34,44878,dense_right,p,4,True,91,-16.0,16.0
selftest,dense_right,1367.6999999284744,img/object-9_120-levels_1D/object9F0Level85F1Level40.png,q,exemplar_display,36,47383,dense_right,p,4,False,85,-6.0,6.0
selftest,dense_right,526.1999999284744,img/object-9_120-levels_1D/object9F0Level99F1Level40.png,p,exemplar_display,38,49889,dense_right,p,4,True,99,14.0,14.0
selftest,dense_right,1274.0,img/object-9_120-levels_1D/object9F0Level81F1Level40.png,p,exemplar_display,40,52399,dense_right,p,4,True,81,-18.0,18.0
selftest,dense_right,695.2000000476837,img/object-9_120-levels_1D/object9F0Level81F1Level40.png,q,exemplar_display,42,54905,dense_right,q,4,True,81,0.0,0.0
selftest,dense_right,867.8999999761581,img/object-9_120-levels_1D/object9F0Level97F1Level40.png,p,exemplar_display,44,57410,dense_right,p,4,True,97,16.0,16.0
selftest,dense_right,635.6000000238419,img/object-9_120-levels_1D/object9F0Level109F1Level40.png,p,exemplar_display,46,59916,dense_right,p,4,True,109,12.0,12.0
selftest,dense_right,1433.7000000476837,img/object-9_120-levels_1D/object9F0Level117F1Level40.png,p,exemplar_display,48,62421,dense_right,p,4,True,117,8.0,8.0
selftest,dense_right,1040.1000000238419,img/object-9_120-levels_1D/object9F0Level117F1Level40.png,p,exemplar_display,50,64925,dense_right,q,4,False,117,0.0,0.0
selftest,dense_right,1496.5,img/object-9_120-levels_1D/object9F0Level93F1Level40.png,p,exemplar_display,52,67431,dense_right,p,4,True,93,-24.0,24.0
selftest,dense_right,,img/object-9_120-levels_1D/object9F0Level99F1Level40.png,,exemplar_display,54,70936,dense_right,p,4,False,99,6.0,6.0
selftest,dense_right,774.3000000715256,img/object-9_120-levels_1D/object9F0Level81F1Level40.png,p,exemplar_display,56,73441,dense_right,p,4,True,81,-18.0,18.0
selftest,dense_right,540.3000000715256,img/object-9_120-levels_1D/object9F0Level113F1Level40.png,p,exemplar_display,58,75953,dense_right,p,4,True,113,32.0,32.0
selftest,dense_right,1011.0,img/object-9_120-levels_1D/object9F0Level113F1Level40.png,p,exemplar_display,60,78459,dense_right,q,4,False,113,0.0,0.0
selftest,dense_right,1210.8999999761581,img/object-9_120-levels_1D/object9F0Level83F1Level40.png,p,exemplar_display,62,80964,dense_right,p,4,True,83,-30.0,30.0
selftest,dense_right,952.0999999046326,img/object-9_120-levels_1D/object9F0Level83F1Level40.png,p,exemplar_display,64,83469,dense_right,q,4,False,83,0.0,0.0
selftest,dense_right,744.1000000238419,img/object-9_120-levels_1D/object9F0Level81F1Level40.png,p,exemplar_display,66,85974,dense_right,p,4,True,81,-2.0,2.0
selftest,dense_right,1590.3999999761581,img/object-9_120-levels_1D/object9F0Level77F1Level40.png,q,exemplar_display,68,88480,dense_right,p,4,False,77,-4.0,4.0
selftest,dense_right,694.0,img/object-9_120-levels_1D/object9F0Level99F1Level40.png,p,exemplar_display,70,90984,dense_right,p,4,True,99,22.0,22.0
selftest,dense_right,778.8999999761581,img/object-9_120-levels_1D/object9F0Level99F1Level40.png,q,exemplar_display,72,93492,dense_right,q,4,True,99,0.0,0.0
selftest,dense_right,1496.1000000238419,img/object-9_120-levels_1D/object9F0Level109F1Level40.png,q,exemplar_display,74,96010,dense_right,p,4,False,109,10.0,10.0
selftest,dense_right,1008.1000000238419,img/object-9_120-levels_1D/object9F0Level111F1Level40.png,q,exemplar_display,76,98518,dense_right,p,4,False,111,2.0,2.0
selftest,dense_right,511.8000000715256,img/object-9_120-levels_1D/object9F0Level77F1Level40.png,p,exemplar_display,78,101031,dense_right,p,4,True,77,-34.0,34.0
selftest,dense_right,678.5,img/object-9_120-levels_1D/object9F0Level103F1Level40.png,p,exemplar_display,80,103536,dense_right,p,4,True,103,26.0,26.0
selftest,dense_right,1524.1000000238419,img/object-9_120-levels_1D/object9F0Level95F1Level40.png,p,exemplar_display,82,106043,dense_right,p,4,True,95,-8.0,8.0
selftest,dense_right,600.6999999284744,img/object-9_120-levels_1D/object9F0Level93F1Level40.png,p,exemplar_display,84,108549,dense_right,p,4,True,93,-2.0,2.0
selftest,dense_right,,img/object-9_120-levels_1D/object9F0Level93F1Level40.png,,exemplar_display,2,4155,dense_right,q,5,,93,0.0,0.0
selftest,dense_right,1222.6000000238419,img/object-9_120-levels_1D/object9F0Level115F1Level40.png,p,exemplar_display,4,6674,dense_right,p,5,True,115,22.0,22.0
selftest,dense_right,1125.0,img/object-9_120-levels_1D/object9F0Level117F1Level40.png,p,exemplar_display,6,9192,dense_right,p,5,True,117,2.0,2.0
selftest,dense_right,1776.5,img/object-9_120-levels_1D/object9F0Level109F1Level40.png,q,exemplar_display,8,11710,dense_right,p,5,False,109,-8.0,8.0
selftest,dense_right,727.3999999761581,img/object-9_120-levels_1D/object9F0Level109F1Level40.png,q,exemplar_display,10,14236,dense_right,q,5,True,109,0.0,0.0
selftest,dense_right,1539.7000000476837,img/object-9_120-levels_1D/object9F0Level97F1Level40.png,p,exemplar_display,12,16758,dense_right,p,5,True,97,-12.0,12.0
selftest,dense_right,1247.7000000476837,img/object-9_120-levels_1D/object9F0Level107F1Level40.png,p,exemplar_display,14,19282,dense_right,p,5,True,107,10.0,10.0
selftest,dense_right,1802.3999999761581,img/object-9_120-levels_1D/object9F0Level109F1Level40.png,q,exemplar_display,16,21797,dense_right,p,5,False,109,2.0,2.0
selftest,dense_right,1240.5999999046326,img/object-9_120-levels_1D/object9F0Level113F1Level40.png,q,exemplar_display,18,24322,dense_right,p,5,False,113,4.0,4.0
selftest,dense_right,1195.6999999284744,img/object-9_120-levels_1D/object9F0Level113F1Level40.png,p,exemplar_display,20,26844,dense_right,q,5,False,113,0.0,0.0
selftest,dense_right,2364.7999999523163,img/object-9_120-levels_1D/object9F0Level109F1Level40.png,p,exemplar_display,22,29725,dense_right,p,5,True,109,-4.0,4.0
selftest,dense_right,942.0,img/object-9_120-levels_1D/object9F0Level85F1Level40.png,p,exemplar_display,24,32231,dense_right,p,5,True,85,-24.0,24.0
selftest,dense_right,949.0,img/object-9_120-levels_1D/object9F0Level95F1Level40.png,p,exemplar_display,26,34740,dense_right,p,5,True,95,10.0,10.0
selftest,dense_right,852.8000000715256,img/object-9_120-levels_1D/object9F0Level95F1Level40.png,p,exemplar_display,28,37247,dense_right,q,5,False,95,0.0,0.0
selftest,dense_right,1346.0,img/object-9_120-levels_1D/object9F0Level85F1Level40.png,q,exemplar_display,30,39754,dense_right,p,5,False,85,-10.0,10.0
selftest,dense_right,561.7000000476837,img/object-9_120-levels_1D/object9F0Level107F1Level40.png,p,exemplar_display,32,42259,dense_right,p,5,True,107,22.0,22.0
selftest,dense_right,1944.6000000238419,img/object-9_120-levels_1D/object9F0Level89F1Level40.png,p,exemplar_display,34,44764,dense_right,p,5,True,89,-18.0,18.0
selftest,dense_right,1214.2000000476837,img/object-9_120-levels_1D/object9F0Level79F1Level40.png,p,exemplar_display,36,47271,dense_right,p,5,True,79,-10.0,10.0
selftest,dense_right,1251.8000000715256,img/object-9_120-levels_1D/object9F0Level79F1Level40.png,q,exemplar_display,38,49777,dense_right,q,5,True,79,0.0,0.0
selftest,dense_right,674.3000000715256,img/object-9_120-levels_1D/object9F0Level83F1Level40.png,q,exemplar_display,40,52282,dense_right,p,5,False,83,4.0,4.0
selftest,dense_right,615.5,img/object-9_120-levels_1D/object9F0Level87F1Level40.png,q,exemplar_display,42,54801,dense_right,p,5,False,87,4.0,4.0
selftest,dense_right,571.2000000476837,img/object-9_120-levels_1D/object9F0Level117F1Level40.png,p,exemplar_display,44,57306,dense_right,p,5,True,117,30.0,30.0
selftest,dense_right,936.8999999761581,img/object-9_120-levels_1D/object9F0Level111F1Level40.png,q,exemplar_display,46,59813,dense_right,p,5,False,111,-6.0,6.0
selftest,dense_right,694.6000000238419,img/object-9_120-levels_1D/object9F0Level111F1Level40.png,q,exemplar_display,48,62319,dense_right,q,5,True,111,0.0,0.0
selftest,dense_right,804.6000000238419,img/object-9_120-levels_1D/object9F0Level117F1Level40.png,q,exemplar_display,50,64824,dense_right,p,5,False,117,6.0,6.0
selftest,dense_right,683.6000000238419,img/object-9_120-levels_1D/object9F0Level109F1Level40.png,q,exemplar_display,52,67329,dense_right,p,5,False,109,-8.0,8.0
selftest,dense_right,627.3999999761581,img/object-9_120-levels_1D/object9F0Level83F1Level40.png,p,exemplar_display,54,69833,dense_right,p,5,True,83,-26.0,26.0
selftest,dense_right,1485.0,img/object-9_120-levels_1D/object9F0Level79F1Level40.png,q,exemplar_display,56,72337,dense_right,p,5,False,79,-4.0,4.0
selftest,dense_right,547.7999999523163,img/object-9_120-levels_1D/object9F0Level79F1Level40.png,q,exemplar_display,58,74841,dense_right,q,5,True,79,0.0,0.0
selftest,dense_right,619.8000000715256,img/object-9_120-levels_1D/object9F0Level77F1Level40.png,q,exemplar_display,60,77346,dense_right,p,5,False,77,-2.0,2.0
selftest,dense_right,1017.1000000238419,img/object-9_120-levels_1D/object9F0Level93F1Level40.png,p,exemplar_display,62,79851,dense_right,p,5,True,93,16.0,16.0
selftest,dense_right,1191.7999999523163,img/object-9_120-levels_1D/object9F0Level95F1Level40.png,q,exemplar_display,64,82357,dense_right,p,5,False,95,2.0,2.0
selftest,dense_right,806.1999999284744,img/object-9_120-levels_1D/object9F0Level91F1Level40.png,q,exemplar_display,66,84863,dense_right,p,5,False,91,-4.0,4.0
selftest,dense_right,859.6000000238419,img/object-9_120-levels_1D/object9F0Level93F1Level40.png,q,exemplar_display,68,87369,dense_right,p,5,False,93,2.0,2.0
selftest,dense_right,852.0,img/object-9_120-levels_1D/object9F0Level93F1Level40.png,p,exemplar_display,70,89874,dense_right,q,5,False,93,0.0,0.0
selftest,dense_right,966.7999999523163,img/object-9_120-levels_1D/object9F0Level105F1Level40.png,p,exemplar_display,72,92383,dense_right,p,5,True,105,12.0,12.0
selftest,dense_right,1011.8999999761581,img/object-9_120-levels_1D/object9F0Level89F1Level40.png,q,exemplar_display,74,94889,dense_right,p,5,False,89,-16.0,16.0
selftest,dense_right,2002.3000000715256,img/object-9_120-levels_1D/object9F0Level107F1Level40.png,p,exemplar_display,76,97395,dense_right,p,5,True,107,18.0,18.0
selftest,dense_right,1184.2999999523163,img/object-9_120-levels_1D/object9F0Level93F1Level40.png,q,exemplar_display,78,99900,dense_right,p,5,False,93,-14.0,14.0
selftest,dense_right,1976.1999999284744,img/object-9_120-levels_1D/object9F0Level87F1Level40.png,q,exemplar_display,80,102403,dense_right,p,5,False,87,-6.0,6.0
selftest,dense_right,679.6000000238419,img/object-9_120-levels_1D/object9F0Level87F1Level40.png,q,exemplar_display,82,104909,dense_right,q,5,True,87,0.0,0.0
selftest,dense_right,1742.6999999284744,img/object-9_120-levels_1D/object9F0Level83F1Level40.png,p,exemplar_display,84,107414,dense_right,p,5,True,83,-4.0,4.0
sub_01,dense_right,,img/object-9_120-levels_1D/object9F0Level111F1Level40.png,,exemplar_display,2,16669,dense_right,,1,,111,,
sub_01,dense_right,1054.0999999046326,img/object-9_120-levels_1D/object9F0Level91F1Level40.png,q,exemplar_display,4,19189,dense_right,p,1,False,91,-20.0,20.0
sub_01,dense_right,1321.8999998569489,img/object-9_120-levels_1D/object9F0Level115F1Level40.png,q,exemplar_display,6,21719,dense_right,p,1,False,115,24.0,24.0
sub_01,dense_right,1398.3999998569489,img/object-9_120-levels_1D/object9F0Level117F1Level40.png,p,exemplar_display,8,24249,dense_right,p,1,True,117,2.0,2.0
sub_01,dense_right,1842.5,img/object-9_120-levels_1D/object9F0Level111F1Level40.png,p,exemplar_display,10,26779,dense_right,p,1,True,111,-6.0,6.0
sub_01,dense_right,967.6000001430511,img/object-9_120-levels_1D/object9F0Level81F1Level40.png,p,exemplar_display,12,29308,dense_right,p,1,True,81,-30.0,30.0
sub_01,dense_right,1668.0999999046326,img/object-9_120-levels_1D/object9F0Level87F1Level40.png,q,exemplar_display,14,31813,dense_right,p,1,False,87,6.0,6.0
sub_01,dense_right,817.4000000953674,img/object-9_120-levels_1D/object9F0Level115F1Level40.png,p,exemplar_display,16,34316,dense_right,p,1,True,115,28.0,28.0
sub_01,dense_right,981.6000001430511,img/object-9_120-levels_1D/object9F0Level117F1Level40.png,q,exemplar_display,18,36819,dense_right,p,1,False,117,2.0,2.0
sub_01,dense_right,1059.8999998569489,img/object-9_120-levels_1D/object9F0Level117F1Level40.png,p,exemplar_display,20,39324,dense_right,q,1,False,117,0.0,0.0
sub_01,dense_right,1127.7999999523163,img/object-9_120-levels_1D/object9F0Level107F1Level40.png,q,exemplar_display,22,41827,dense_right,p,1,False,107,-10.0,10.0
sub_01,dense_right,1412.6000001430511,img/object-9_120-levels_1D/object9F0Level85F1Level40.png,p,exemplar_display,24,44330,dense_right,p,1,True,85,-22.0,22.0
sub_01,dense_right,1274.9000000953674,img/object-9_120-levels_1D/object9F0Level85F1Level40.png,p,exemplar_display,26,46833,dense_right,q,1,False,85,0.0,0.0
sub_01,dense_right,1963.5999999046326,img/object-9_120-levels_1D/object9F0Level101F1Level40.png,p,exemplar_display,28,49345,dense_right,p,1,True,101,16.0,16.0
sub_01,dense_right,650.7000000476837,img/object-9_120-levels_1D/object9F0Level81F1Level40.png,q,exemplar_display,30,51848,dense_right,p,1,False,81,-20.0,20.0
sub_01,dense_right,709.4000000953674,img/object-9_120-levels_1D/object9F0Level81F1Level40.png,q,exemplar_display,32,54351,dense_right,q,1,True,81,0.0,0.0
sub_01,dense_right,567.5,img/object-9_120-levels_1D/object9F0Level111F1Level40.png,p,exemplar_display,34,56854,dense_right,p,1,True,111,30.0,30.0
sub_01,dense_right,1058.2000000476837,img/object-9_120-levels_1D/object9F0Level103F1Level40.png,q,exemplar_display,36,59358,dense_right,p,1,False,103,-8.0,8.0
sub_01,dense_right,793.0,img/object-9_120-levels_1D/object9F0Level113F1Level40.png,q,exemplar_display,38,61862,dense_right,p,1,False,113,10.0,10.0
sub_01,dense_right,1503.8000001907349,img/object-9_120-levels_1D/object9F0Level113F1Level40.png,q,exemplar_display,40,64365,dense_right,q,1,True,113,0.0,0.0
sub_01,dense_right,1329.2999999523163,img/object-9_120-levels_1D/object9F0Level109F1Level40.png,q,exemplar_display,42,66868,dense_right,p,1,False,109,-4.0,4.0
sub_01,dense_right,827.5,img/object-9_120-levels_1D/object9F0Level77F1Level40.png,p,exemplar_display,44,69379,dense_right,p,1,True,77,-32.0,32.0
sub_01,dense_right,580.6000001430511,img/object-9_120-levels_1D/object9F0Level105F1Level40.png,q,exemplar_display,46,71881,dense_right,p,1,False,105,28.0,28.0
sub_01,dense_right,1037.0,img/object-9_120-levels_1D/object9F0Level83F1Level40.png,p,exemplar_display,48,74384,dense_right,p,1,True,83,-22.0,22.0
sub_01,dense_right,1302.0999999046326,img/object-9_120-levels_1D/object9F0Level99F1Level40.png,p,exemplar_display,50,76887,dense_right,p,1,True,99,16.0,16.0
sub_01,dense_right,917.7000000476837,img/object-9_120-levels_1D/object9F0Level79F1Level40.png,p,exemplar_display,52,79391,dense_right,p,1,True,79,-20.0,20.0
sub_01,dense_right,1342.7000000476837,img/object-9_120-levels_1D/object9F0Level91F1Level40.png,p,exemplar_display,54,81894,dense_right,p,1,True,91,12.0,12.0
sub_01,dense_right,1200.5,img/object-9_120-levels_1D/object9F0Level101F1Level40.png,q,exemplar_display,56,84397,dense_right,p,1,False,101,10.0,10.0
sub_01,dense_right,1314.2000000476837,img/object-9_120-levels_1D/object9F0Level101F1Level40.png,q,exemplar_display,58,86902,dense_right,q,1,True,101,0.0,0.0
sub_01,dense_right,1781.5,img/object-9_120-levels_1D/object9F0Level91F1Level40.png,q,exemplar_display,60,89412,dense_right,p,1,False,91,-10.0,10.0
sub_01,dense_right,1398.7999999523163,img/object-9_120-levels_1D/object9F0Level85F1Level40.png,q,exemplar_display,62,91915,dense_right,p,1,False,85,-6.0,6.0
sub_01,dense_right,1452.5,img/object-9_120-levels_1D/object9F0Level83F1Level40.png,p,exemplar_display,64,94419,dense_right,p,1,True,83,-2.0,2.0
sub_01,dense_right,1082.0999999046326,img/object-9_120-levels_1D/object9F0Level83F1Level40.png,q,exemplar_display,66,96923,dense_right,q,1,True,83,0.0,0.0
sub_01,dense_right,1330.5,img/object-9_120-levels_1D/object9F0Level83F1Level40.png,p,exemplar_display,68,99426,dense_right,q,1,False,83,0.0,0.0
sub_01,dense_right,1058.0999999046326,img/object-9_120-levels_1D/object9F0Level117F1Level40.png,p,exemplar_display,70,101930,dense_right,p,1,True,117,34.0,34.0
sub_01,dense_right,1226.6999998092651,img/object-9_120-levels_1D/object9F0Level101F1Level40.png,p,exemplar_display,72,104441,dense_right,p,1,True,101,-16.0,16.0
sub_01,dense_right,1412.8000001907349,img/object-9_120-levels_1D/object9F0Level109F1Level40.png,p,exemplar_display,74,106945,dense_right,p,1,True,109,8.0,8.0
sub_01,dense_right,898.4000000953674,img/object-9_120-levels_1D/object9F0Level111F1Level40.png,q,exemplar_display,76,109448,dense_right,p,1,False,111,2.0,2.0
sub_01,dense_right,2011.5,img/object-9_120-levels_1D/object9F0Level111F1Level40.png,q,exemplar_display,78,111962,dense_right,q,1,True,111,0.0,0.0
sub_01,dense_right,919.5,img/object-9_120-levels_1D/object9F0Level109F1Level40.png,q,exemplar_display,80,114465,dense_right,p,1,False,109,-2.0,2.0
sub_01,dense_right,716.1000001430511,img/object-9_120-levels_1D/object9F0Level89F1Level40.png,p,exemplar_display,82,116968,dense_right,p,1,True,89,-20.0,20.0
sub_01,dense_right,991.1000001430511,img/object-9_120-levels_1D/object9F0Level89F1Level40.png,q,exemplar_display,84,119471,dense_right,q,1,True,89,0.0,0.0
sub_01,dense_right,,img/object-9_120-levels_1D/object9F0Level101F1Level40.png,,exemplar_display,2,16070,dense_right,p,2,,101,12.0,12.0
sub_01,dense_right,1568.5,img/object-9_120-levels_1D/object9F0Level113F1Level40.png,q,exemplar_display,4,18600,dense_right,p,2,False,113,12.0,12.0
sub_01,dense_right,1448.5999999046326,img/object-9_120-levels_1D/object9F0Level99F1Level40.png,q,exemplar_display,6,21110,dense_right,p,2,False,99,-14.0,14.0
sub_01,dense_right,1109.0,img/object-9_120-levels_1D/object9F0Level103F1Level40.png,q,exemplar_display,8,23630,dense_right,p,2,False,103,4.0,4.0
sub_01,dense_right,1085.5999999046326,img/object-9_120-levels_1D/object9F0Level103F1Level40.png,q,exemplar_display,10,26151,dense_right,q,2,True,103,0.0,0.0
sub_01,dense_right,981.2999999523163,img/object-9_120-levels_1D/object9F0Level103F1Level40.png,p,exemplar_display,12,28670,dense_right,q,2,False,103,0.0,0.0
sub_01,dense_right,1319.7000000476837,img/object-9_120-levels_1D/object9F0Level99F1Level40.png,q,exemplar_display,14,31183,dense_right,p,2,False,99,-4.0,4.0
sub_01,dense_right,873.9000000953674,img/object-9_120-levels_1D/object9F0Level81F1Level40.png,p,exemplar_display,16,33686,dense_right,p,2,True,81,-18.0,18.0
sub_01,dense_right,862.6000001430511,img/object-9_120-levels_1D/object9F0Level105F1Level40.png,p,exemplar_display,18,36189,dense_right,p,2,True,105,24.0,24.0
sub_01,dense_right,695.0999999046326,img/object-9_120-levels_1D/object9F0Level105F1Level40.png,q,exemplar_display,20,38693,dense_right,q,2,True,105,0.0,0.0
sub_01,dense_right,943.3999998569489,img/object-9_120-levels_1D/object9F0Level117F1Level40.png,p,exemplar_display,22,41197,dense_right,p,2,True,117,12.0,12.0
sub_01,dense_right,890.0999999046326,img/object-9_120-levels_1D/object9F0Level117F1Level40.png,q,exemplar_display,24,43703,dense_right,q,2,True,117,0.0,0.0
sub_01,dense_right,1490.0,img/object-9_120-levels_1D/object9F0Level113F1Level40.png,q,exemplar_display,26,46206,dense_right,p,2,False,113,-4.0,4.0
sub_01,dense_right,827.0,img/object-9_120-levels_1D/object9F0Level85F1Level40.png,p,exemplar_display,28,48718,dense_right,p,2,True,85,-28.0,28.0
sub_01,dense_right,1141.0,img/object-9_120-levels_1D/object9F0Level107F1Level40.png,p,exemplar_display,30,51221,dense_right,p,2,True,107,22.0,22.0
sub_01,dense_right,1501.1000001430511,img/object-9_120-levels_1D/object9F0Level107F1Level40.png,p,exemplar_display,32,53724,dense_right,q,2,False,107,0.0,0.0
sub_01,dense_right,921.0999999046326,img/object-9_120-levels_1D/object9F0Level89F1Level40.png,p,exemplar_display,34,56228,dense_right,p,2,True,89,-18.0,18.0
sub_01,dense_right,1512.7000000476837,img/object-9_120-levels_1D/object9F0Level99F1Level40.png,q,exemplar_display,36,58731,dense_right,p,2,False,99,10.0,10.0
sub_01,dense_right,1208.7999999523163,img/object-9_120-levels_1D/object9F0Level99F1Level40.png,q,exemplar_display,38,61235,dense_right,q,2,True,99,0.0,0.0
sub_01,dense_right,909.9000000953674,img/object-9_120-levels_1D/object9F0Level83F1Level40.png,p,exemplar_display,40,63739,dense_right,p,2,True,83,-16.0,16.0
sub_01,dense_right,1124.3999998569489,img/object-9_120-levels_1D/object9F0Level79F1Level40.png,q,exemplar_display,42,66243,dense_right,p,2,False,79,-4.0,4.0
sub_01,dense_right,1362.0,img/object-9_120-levels_1D/object9F0Level79F1Level40.png,q,exemplar_display,44,68755,dense_right,q,2,True,79,0.0,0.0
sub_01,dense_right,1259.7000000476837,img/object-9_120-levels_1D/object9F0Level95F1Level40.png,p,exemplar_display,46,71259,dense_right,p,2,True,95,16.0,16.0
sub_01,dense_right,1519.2000000476837,img/object-9_120-levels_1D/object9F0Level85F1Level40.png,p,exemplar_display,48,73762,dense_right,p,2,True,85,-10.0,10.0
sub_01,dense_right,1421.5,img/object-9_120-levels_1D/object9F0Level105F1Level40.png,p,exemplar_display,50,76266,dense_right,p,2,True,105,20.0,20.0
sub_01,dense_right,1279.0,img/object-9_120-levels_1D/object9F0Level93F1Level40.png,p,exemplar_display,52,78768,dense_right,p,2,True,93,-12.0,12.0
sub_01,dense_right,1013.0,img/object-9_120-levels_1D/object9F0Level77F1Level40.png,p,exemplar_display,54,81272,dense_right,p,2,True,77,-16.0,16.0
sub_01,dense_right,1235.5,img/object-9_120-levels_1D/object9F0Level95F1Level40.png,p,exemplar_display,56,83775,dense_right,p,2,True,95,18.0,18.0
sub_01,dense_right,1263.9000000953674,img/object-9_120-levels_1D/object9F0Level89F1Level40.png,q,exemplar_display,58,86279,dense_right,p,2,False,89,-6.0,6.0
sub_01,dense_right,929.2000000476837,img/object-9_120-levels_1D/object9F0Level105F1Level40.png,p,exemplar_display,60,88784,dense_right,p,2,True,105,16.0,16.0
sub_01,dense_right,1032.8999998569489,img/object-9_120-levels_1D/object9F0Level93F1Level40.png,p,exemplar_display,62,91286,dense_right,p,2,True,93,-12.0,12.0
sub_01,dense_right,930.1000001430511,img/object-9_120-levels_1D/object9F0Level93F1Level40.png,q,exemplar_display,64,93802,dense_right,q,2,True,93,0.0,0.0
sub_01,dense_right,758.5999999046326,img/object-9_120-levels_1D/object9F0Level109F1Level40.png,p,exemplar_display,66,96312,dense_right,p,2,True,109,16.0,16.0
sub_01,dense_right,802.1000001430511,img/object-9_120-levels_1D/object9F0Level85F1Level40.png,p,exemplar_display,68,98816,dense_right,p,2,True,85,-24.0,24.0
sub_01,dense_right,860.5,img/object-9_120-levels_1D/object9F0Level109F1Level40.png,p,exemplar_display,70,101320,dense_right,p,2,True,109,24.0,24.0
sub_01,dense_right,965.5,img/object-9_120-levels_1D/object9F0Level93F1Level40.png,p,exemplar_display,72,103823,dense_right,p,2,True,93,-16.0,16.0
sub_01,dense_right,866.7999999523163,img/object-9_120-levels_1D/object9F0Level81F1Level40.png,p,exemplar_display,74,106325,dense_right,p,2,True,81,-12.0,12.0
sub_01,dense_right,890.7000000476837,img/object-9_120-levels_1D/object9F0Level77F1Level40.png,q,exemplar_display,76,108829,dense_right,p,2,False,77,-4.0,4.0
sub_01,dense_right,1130.3999998569489,img/object-9_120-levels_1D/object9F0Level93F1Level40.png,p,exemplar_display,78,111332,dense_right,p,2,True,93,16.0,16.0
sub_01,dense_right,776.7000000476837,img/object-9_120-levels_1D/object9F0Level117F1Level40.png,p,exemplar_display,80,113835,dense_right,p,2,True,117,24.0,24.0
sub_01,dense_right,1241.2000000476837,img/object-9_120-levels_1D/object9F0Level99F1Level40.png,p,exemplar_display,82,116339,dense_right,p,2,True,99,-18.0,18.0
sub_01,dense_right,801.2000000476837,img/object-9_120-levels_1D/object9F0Level99F1Level40.png,q,exemplar_display,84,118844,dense_right,q,2,True,99,0.0,0.0
sub_01,dense_right,,img/object-9_120-levels_1D/object9F0Level89F1Level40.png,,exemplar_display,2,16155,dense_right,p,3,,89,-10.0,10.0
sub_01,dense_right,936.7999999523163,img/object-9_120-levels_1D/object9F0Level89F1Level40.png,p,exemplar_display,4,18682,dense_right,q,3,False,89,0.0,0.0
sub_01,dense_right,832.0,img/object-9_120-levels_1D/object9F0Level105F1Level40.png,p,exemplar_display,6,21215,dense_right,p,3,True,105,16.0,16.0
sub_01,dense_right,583.0999999046326,img/object-9_120-levels_1D/object9F0Level105F1Level40.png,q,exemplar_display,8,23745,dense_right,q,3,True,105,0.0,0.0
sub_01,dense_right,993.4000000953674,img/object-9_120-levels_1D/object9F0Level87F1Level40.png,p,exemplar_display,10,26275,dense_right,p,3,True,87,-18.0,18.0
sub_01,dense_right,645.7999999523163,img/object-9_120-levels_1D/object9F0Level111F1Level40.png,q,exemplar_display,12,28804,dense_right,p,3,False,111,24.0,24.0
sub_01,dense_right,1074.5999999046326,img/object-9_120-levels_1D/object9F0Level111F1Level40.png,q,exemplar_display,14,31327,dense_right,q,3,True,111,0.0,0.0
sub_01,dense_right,594.7999999523163,img/object-9_120-levels_1D/object9F0Level79F1Level40.png,p,exemplar_display,16,33831,dense_right,p,3,True,79,-32.0,32.0
sub_01,dense_right,834.3999998569489,img/object-9_120-levels_1D/object9F0Level111F1Level40.png,p,exemplar_display,18,36334,dense_right,p,3,True,111,32.0,32.0
sub_01,dense_right,808.7999999523163,img/object-9_120-levels_1D/object9F0Level109F1Level40.png,q,exemplar_display,20,38841,dense_right,p,3,False,109,-2.0,2.0
sub_01,dense_right,737.1000001430511,img/object-9_120-levels_1D/object9F0Level83F1Level40.png,p,exemplar_display,22,41344,dense_right,p,3,True,83,-26.0,26.0
sub_01,dense_right,956.2000000476837,img/object-9_120-levels_1D/object9F0Level83F1Level40.png,q,exemplar_display,24,43848,dense_right,q,3,True,83,0.0,0.0
sub_01,dense_right,969.0,img/object-9_120-levels_1D/object9F0Level115F1Level40.png,p,exemplar_display,26,46351,dense_right,p,3,True,115,32.0,32.0
sub_01,dense_right,937.0999999046326,img/object-9_120-levels_1D/object9F0Level101F1Level40.png,q,exemplar_display,28,48854,dense_right,p,3,False,101,-14.0,14.0
sub_01,dense_right,1079.5999999046326,img/object-9_120-levels_1D/object9F0Level87F1Level40.png,p,exemplar_display,30,51365,dense_right,p,3,True,87,-14.0,14.0
sub_01,dense_right,1197.7000000476837,img/object-9_120-levels_1D/object9F0Level87F1Level40.png,q,exemplar_display,32,53869,dense_right,q,3,True,87,0.0,0.0
sub_01,dense_right,1079.8000001907349,img/object-9_120-levels_1D/object9F0Level89F1Level40.png,q,exemplar_display,34,56373,dense_right,p,3,False,89,2.0,2.0
sub_01,dense_right,1615.2000000476837,img/object-9_120-levels_1D/object9F0Level103F1Level40.png,p,exemplar_display,36,58876,dense_right,p,3,True,103,14.0,14.0
sub_01,dense_right,875.1000001430511,img/object-9_120-levels_1D/object9F0Level81F1Level40.png,p,exemplar_display,38,61380,dense_right,p,3,True,81,-22.0,22.0
sub_01,dense_right,853.0999999046326,img/object-9_120-levels_1D/object9F0Level87F1Level40.png,q,exemplar_display,40,63884,dense_right,p,3,False,87,6.0,6.0
sub_01,dense_right,1433.4000000953674,img/object-9_120-levels_1D/object9F0Level97F1Level40.png,q,exemplar_display,42,66388,dense_right,p,3,False,97,10.0,10.0
sub_01,dense_right,897.7999999523163,img/object-9_120-levels_1D/object9F0Level77F1Level40.png,p,exemplar_display,44,68892,dense_right,p,3,True,77,-20.0,20.0
sub_01,dense_right,901.5999999046326,img/object-9_120-levels_1D/object9F0Level101F1Level40.png,p,exemplar_display,46,71405,dense_right,p,3,True,101,24.0,24.0
sub_01,dense_right,882.7000000476837,img/object-9_120-levels_1D/object9F0Level103F1Level40.png,q,exemplar_display,48,73910,dense_right,p,3,False,103,2.0,2.0
sub_01,dense_right,809.5999999046326,img/object-9_120-levels_1D/object9F0Level79F1Level40.png,p,exemplar_display,50,76414,dense_right,p,3,True,79,-24.0,24.0
sub_01,dense_right,1058.7999999523163,img/object-9_120-levels_1D/object9F0Level97F1Level40.png,p,exemplar_display,52,78918,dense_right,p,3,True,97,18.0,18.0
sub_01,dense_right,1247.1000001430511,img/object-9_120-levels_1D/object9F0Level113F1Level40.png,p,exemplar_display,54,81423,dense_right,p,3,True,113,16.0,16.0
sub_01,dense_right,742.4000000953674,img/object-9_120-levels_1D/object9F0Level103F1Level40.png,q,exemplar_display,56,83926,dense_right,p,3,False,103,-10.0,10.0
sub_01,dense_right,1081.8999998569489,img/object-9_120-levels_1D/object9F0Level113F1Level40.png,q,exemplar_display,58,86430,dense_right,p,3,False,113,10.0,10.0
sub_01,dense_right,1487.7999999523163,img/object-9_120-levels_1D/object9F0Level91F1Level40.png,p,exemplar_display,60,88942,dense_right,p,3,True,91,-22.0,22.0
sub_01,dense_right,893.0,img/object-9_120-levels_1D/object9F0Level113F1Level40.png,p,exemplar_display,62,91445,dense_right,p,3,True,113,22.0,22.0
sub_01,dense_right,1317.8000001907349,img/object-9_120-levels_1D/object9F0Level91F1Level40.png,q,exemplar_display,64,93949,dense_right,p,3,False,91,-22.0,22.0
sub_01,dense_right,1080.1999998092651,img/object-9_120-levels_1D/object9F0Level85F1Level40.png,p,exemplar_display,66,96453,dense_right,p,3,True,85,-6.0,6.0
sub_01,dense_right,872.0,img/object-9_120-levels_1D/object9F0Level85F1Level40.png,q,exemplar_display,68,98956,dense_right,q,3,True,85,0.0,0.0
sub_01,dense_right,1091.1000001430511,img/object-9_120-levels_1D/object9F0Level79F1Level40.png,p,exemplar_display,70,101460,dense_right,p,3,True,79,-6.0,6.0
sub_01,dense_right,978.9000000953674,img/object-9_120-levels_1D/object9F0Level97F1Level40.png,p,exemplar_display,72,103963,dense_right,p,3,True,97,18.0,18.0
sub_01,dense_right,866.8999998569489,img/object-9_120-levels_1D/object9F0Level95F1Level40.png,q,exemplar_display,74,106466,dense_right,p,3,False,95,-2.0,2.0
sub_01,dense_right,980.2000000476837,img/object-9_120-levels_1D/object9F0Level95F1Level40.png,q,exemplar_display,76,108970,dense_right,q,3,True,95,0.0,0.0
sub_01,dense_right,1415.5,img/object-9_120-levels_1D/object9F0Level91F1Level40.png,q,exemplar_display,78,111474,dense_right,p,3,False,91,-4.0,4.0
sub_01,dense_right,1548.7999999523163,img/object-9_120-levels_1D/object9F0Level95F1Level40.png,q,exemplar_display,80,113978,dense_right,p,3,False,95,4.0,4.0
sub_01,dense_right,1405.4000000953674,img/object-9_120-levels_1D/object9F0Level101F1Level40.png,p,exemplar_display,82,116481,dense_right,p,3,True,101,6.0,6.0
sub_01,dense_right,856.6000001430511,img/object-9_120-levels_1D/object9F0Level109F1Level40.png,q,exemplar_display,84,118984,dense_right,p,3,False,109,8.0,8.0
sub_01,dense_right,,img/object-9_120-levels_1D/object9F0Level77F1Level40.png,,exemplar_display,2,16994,dense_right,p,4,,77,-32.0,32.0
sub_01,dense_right,908.2000000476837,img/object-9_120-levels_1D/object9F0Level77F1Level40.png,q,exemplar_display,4,19524,dense_right,q,4,True,77,0.0,0.0
sub_01,dense_right,1108.0999999046326,img/object-9_120-levels_1D/object9F0Level87F1Level40.png,p,exemplar_display,6,22054,dense_right,p,4,True,87,10.0,10.0
sub_01,dense_right,1436.0999999046326,img/object-9_120-levels_1D/object9F0Level95F1Level40.png,q,exemplar_display,8,24584,dense_right,p,4,False,95,8.0,8.0
sub_01,dense_right,830.3999998569489,img/object-9_120-levels_1D/object9F0Level77F1Level40.png,p,exemplar_display,10,27114,dense_right,p,4,True,77,-18.0,18.0
sub_01,dense_right,732.9000000953674,img/object-9_120-levels_1D/object9F0Level103F1Level40.png,p,exemplar_display,12,29635,dense_right,p,4,True,103,26.0,26.0
sub_01,dense_right,885.3999998569489,img/object-9_120-levels_1D/object9F0Level103F1Level40.png,q,exemplar_display,14,32139,dense_right,q,4,True,103,0.0,0.0
sub_01,dense_right,788.0,img/object-9_120-levels_1D/object9F0Level77F1Level40.png,p,exemplar_display,16,34642,dense_right,p,4,True,77,-26.0,26.0
sub_01,dense_right,696.6999998092651,img/object-9_120-levels_1D/object9F0Level91F1Level40.png,p,exemplar_display,18,37145,dense_right,p,4,True,91,14.0,14.0
sub_01,dense_right,799.3999998569489,img/object-9_120-levels_1D/object9F0Level97F1Level40.png,q,exemplar_display,20,39649,dense_right,p,4,False,97,6.0,6.0
sub_01,dense_right,913.4000000953674,img/object-9_120-levels_1D/object9F0Level97F1Level40.png,q,exemplar_display,22,42152,dense_right,q,4,True,97,0.0,0.0
sub_01,dense_right,711.2000000476837,img/object-9_120-levels_1D/object9F0Level91F1Level40.png,q,exemplar_display,24,44656,dense_right,p,4,False,91,-6.0,6.0
sub_01,dense_right,734.6999998092651,img/object-9_120-levels_1D/object9F0Level115F1Level40.png,p,exemplar_display,26,47158,dense_right,p,4,True,115,24.0,24.0
sub_01,dense_right,804.0,img/object-9_120-levels_1D/object9F0Level113F1Level40.png,q,exemplar_display,28,49660,dense_right,p,4,False,113,-2.0,2.0
sub_01,dense_right,733.5,img/object-9_120-levels_1D/object9F0Level91F1Level40.png,p,exemplar_display,30,52173,dense_right,p,4,True,91,-22.0,22.0
sub_01,dense_right,923.3999998569489,img/object-9_120-levels_1D/object9F0Level113F1Level40.png,p,exemplar_display,32,54675,dense_right,p,4,True,113,22.0,22.0
sub_01,dense_right,605.0,img/object-9_120-levels_1D/object9F0Level113F1Level40.png,q,exemplar_display,34,57178,dense_right,q,4,True,113,0.0,0.0
sub_01,dense_right,674.0,img/object-9_120-levels_1D/object9F0Level107F1Level40.png,q,exemplar_display,36,59682,dense_right,p,4,False,107,-6.0,6.0
sub_01,dense_right,707.0999999046326,img/object-9_120-levels_1D/object9F0Level105F1Level40.png,q,exemplar_display,38,62185,dense_right,p,4,False,105,-2.0,2.0
sub_01,dense_right,685.2000000476837,img/object-9_120-levels_1D/object9F0Level81F1Level40.png,p,exemplar_display,40,64689,dense_right,p,4,True,81,-24.0,24.0
sub_01,dense_right,1060.0,img/object-9_120-levels_1D/object9F0Level83F1Level40.png,q,exemplar_display,42,67192,dense_right,p,4,False,83,2.0,2.0
sub_01,dense_right,1013.2000000476837,img/object-9_120-levels_1D/object9F0Level111F1Level40.png,p,exemplar_display,44,69695,dense_right,p,4,True,111,28.0,28.0
sub_01,dense_right,688.2000000476837,img/object-9_120-levels_1D/object9F0Level107F1Level40.png,q,exemplar_display,46,72207,dense_right,p,4,False,107,-4.0,4.0
sub_01,dense_right,975.5,img/object-9_120-levels_1D/object9F0Level107F1Level40.png,q,exemplar_display,48,74711,dense_right,q,4,True,107,0.0,0.0
sub_01,dense_right,1230.2000000476837,img/object-9_120-levels_1D/object9F0Level87F1Level40.png,p,exemplar_display,50,77214,dense_right,p,4,True,87,-20.0,20.0
sub_01,dense_right,991.2999999523163,img/object-9_120-levels_1D/object9F0Level107F1Level40.png,p,exemplar_display,52,79718,dense_right,p,4,True,107,20.0,20.0
sub_01,dense_right,854.1999998092651,img/object-9_120-levels_1D/object9F0Level85F1Level40.png,p,exemplar_display,54,82221,dense_right,p,4,True,85,-22.0,22.0
sub_01,dense_right,706.7000000476837,img/object-9_120-levels_1D/object9F0Level87F1Level40.png,q,exemplar_display,56,84726,dense_right,p,4,False,87,2.0,2.0
sub_01,dense_right,688.9000000953674,img/object-9_120-levels_1D/object9F0Level87F1Level40.png,q,exemplar_display,58,87228,dense_right,q,4,True,87,0.0,0.0
sub_01,dense_right,783.2000000476837,img/object-9_120-levels_1D/object9F0Level95F1Level40.png,p,exemplar_display,60,89732,dense_right,p,4,True,95,8.0,8.0
sub_01,dense_right,887.6000001430511,img/object-9_120-levels_1D/object9F0Level79F1Level40.png,p,exemplar_display,62,92244,dense_right,p,4,True,79,-16.0,16.0
sub_01,dense_right,850.4000000953674,img/object-9_120-levels_1D/object9F0Level107F1Level40.png,p,exemplar_display,64,94748,dense_right,p,4,True,107,28.0,28.0
sub_01,dense_right,973.4000000953674,img/object-9_120-levels_1D/object9F0Level93F1Level40.png,q,exemplar_display,66,97252,dense_right,p,4,False,93,-14.0,14.0
sub_01,dense_right,595.5,img/object-9_120-levels_1D/object9F0Level93F1Level40.png,q,exemplar_display,68,99755,dense_right,q,4,True,93,0.0,0.0
sub_01,dense_right,628.1000001430511,img/object-9_120-levels_1D/object9F0Level117F1Level40.png,p,exemplar_display,70,102258,dense_right,p,4,True,117,24.0,24.0
sub_01,dense_right,697.0,img/object-9_120-levels_1D/object9F0Level99F1Level40.png,q,exemplar_display,72,104761,dense_right,p,4,False,99,-18.0,18.0
sub_01,dense_right,825.7000000476837,img/object-9_120-levels_1D/object9F0Level115F1Level40.png,p,exemplar_display,74,107271,dense_right,p,4,True,115,16.0,16.0
sub_01,dense_right,720.6000001430511,img/object-9_120-levels_1D/object9F0Level115F1Level40.png,q,exemplar_display,76,109775,dense_right,q,4,True,115,0.0,0.0
sub_01,dense_right,684.0,img/object-9_120-levels_1D/object9F0Level93F1Level40.png,p,exemplar_display,78,112279,dense_right,p,4,True,93,-22.0,22.0
sub_01,dense_right,779.2999999523163,img/object-9_120-levels_1D/object9F0Level81F1Level40.png,p,exemplar_display,80,114782,dense_right,p,4,True,81,-12.0,12.0
sub_01,dense_right,604.7000000476837,img/object-9_120-levels_1D/object9F0Level81F1Level40.png,q,exemplar_display,82,117285,dense_right,q,4,True,81,0.0,0.0
sub_01,dense_right,1660.9000000953674,img/object-9_120-levels_1D/object9F0Level79F1Level40.png,p,exemplar_display,84,119790,dense_right,p,4,True,79,-2.0,2.0
sub_01,dense_right,,img/object-9_120-levels_1D/object9F0Level97F1Level40.png,,exemplar_display,2,16080,dense_right,p,5,,97,18.0,18.0
sub_01,dense_right,1331.0,img/object-9_120-levels_1D/object9F0Level83F1Level40.png,q,exemplar_display,4,18610,dense_right,p,5,False,83,-14.0,14.0
sub_01,dense_right,752.2999999523163,img/object-9_120-levels_1D/object9F0Level103F1Level40.png,p,exemplar_display,6,21137,dense_right,p,5,True,103,20.0,20.0
sub_01,dense_right,975.0999999046326,img/object-9_120-levels_1D/object9F0Level97F1Level40.png,q,exemplar_display,8,23671,dense_right,p,5,False,97,-6.0,6.0
sub_01,dense_right,665.0999999046326,img/object-9_120-levels_1D/object9F0Level97F1Level40.png,q,exemplar_display,10,26200,dense_right,q,5,True,97,0.0,0.0
sub_01,dense_right,949.4000000953674,img/object-9_120-levels_1D/object9F0Level109F1Level40.png,q,exemplar_display,12,28730,dense_right,p,5,False,109,12.0,12.0
sub_01,dense_right,1527.0,img/object-9_120-levels_1D/object9F0Level109F1Level40.png,q,exemplar_display,14,31242,dense_right,q,5,True,109,0.0,0.0
sub_01,dense_right,1505.1000001430511,img/object-9_120-levels_1D/object9F0Level109F1Level40.png,p,exemplar_display,16,33746,dense_right,q,5,False,109,0.0,0.0
sub_01,dense_right,1371.2999999523163,img/object-9_120-levels_1D/object9F0Level89F1Level40.png,p,exemplar_display,18,36249,dense_right,p,5,True,89,-20.0,20.0
sub_01,dense_right,948.0999999046326,img/object-9_120-levels_1D/object9F0Level85F1Level40.png,q,exemplar_display,20,38753,dense_right,p,5,False,85,-4.0,4.0
sub_01,dense_right,1121.1000001430511,img/object-9_120-levels_1D/object9F0Level97F1Level40.png,p,exemplar_display,22,41257,dense_right,p,5,True,97,12.0,12.0
sub_01,dense_right,863.5,img/object-9_120-levels_1D/object9F0Level107F1Level40.png,q,exemplar_display,24,43760,dense_right,p,5,False,107,10.0,10.0
sub_01,dense_right,815.9000000953674,img/object-9_120-levels_1D/object9F0Level101F1Level40.png,q,exemplar_display,26,46263,dense_right,p,5,False,101,-6.0,6.0
sub_01,dense_right,1402.1000001430511,img/object-9_120-levels_1D/object9F0Level87F1Level40.png,p,exemplar_display,28,48776,dense_right,p,5,True,87,-14.0,14.0
sub_01,dense_right,937.8999998569489,img/object-9_120-levels_1D/object9F0Level111F1Level40.png,p,exemplar_display,30,51279,dense_right,p,5,True,111,24.0,24.0
sub_01,dense_right,1292.7000000476837,img/object-9_120-levels_1D/object9F0Level77F1Level40.png,p,exemplar_display,32,53783,dense_right,p,5,True,77,-34.0,34.0
sub_01,dense_right,923.5999999046326,img/object-9_120-levels_1D/object9F0Level105F1Level40.png,p,exemplar_display,34,56286,dense_right,p,5,True,105,28.0,28.0
sub_01,dense_right,715.7000000476837,img/object-9_120-levels_1D/object9F0Level117F1Level40.png,q,exemplar_display,36,58790,dense_right,p,5,False,117,12.0,12.0
sub_01,dense_right,633.5,img/object-9_120-levels_1D/object9F0Level115F1Level40.png,q,exemplar_display,38,61293,dense_right,p,5,False,115,-2.0,2.0
sub_01,dense_right,1141.2999999523163,img/object-9_120-levels_1D/object9F0Level115F1Level40.png,p,exemplar_display,40,63795,dense_right,q,5,False,115,0.0,0.0
sub_01,dense_right,787.7999999523163,img/object-9_120-levels_1D/object9F0Level115F1Level40.png,q,exemplar_display,42,66308,dense_right,q,5,True,115,0.0,0.0
sub_01,dense_right,750.2999999523163,img/object-9_120-levels_1D/object9F0Level89F1Level40.png,p,exemplar_display,44,68811,dense_right,p,5,True,89,-26.0,26.0
sub_01,dense_right,1039.8999998569489,img/object-9_120-levels_1D/object9F0Level95F1Level40.png,p,exemplar_display,46,71314,dense_right,p,5,True,95,6.0,6.0
sub_01,dense_right,605.7999999523163,img/object-9_120-levels_1D/object9F0Level91F1Level40.png,q,exemplar_display,48,73818,dense_right,p,5,False,91,-4.0,4.0
sub_01,dense_right,578.5999999046326,img/object-9_120-levels_1D/object9F0Level77F1Level40.png,p,exemplar_display,50,76322,dense_right,p,5,True,77,-14.0,14.0
sub_01,dense_right,1048.5999999046326,img/object-9_120-levels_1D/object9F0Level93F1Level40.png,p,exemplar_display,52,78825,dense_right,p,5,True,93,16.0,16.0
sub_01,dense_right,564.5,img/object-9_120-levels_1D/object9F0Level95F1Level40.png,q,exemplar_display,54,81328,dense_right,p,5,False,95,2.0,2.0
sub_01,dense_right,642.7000000476837,img/object-9_120-levels_1D/object9F0Level95F1Level40.png,q,exemplar_display,56,83832,dense_right,q,5,True,95,0.0,0.0
sub_01,dense_right,1134.2000000476837,img/object-9_120-levels_1D/object9F0Level107F1Level40.png,p,exemplar_display,58,86344,dense_right,p,5,True,107,12.0,12.0
sub_01,dense_right,946.8999998569489,img/object-9_120-levels_1D/object9F0Level115F1Level40.png,p,exemplar_display,60,88847,dense_right,p,5,True,115,8.0,8.0
sub_01,dense_right,1663.1000001430511,img/object-9_120-levels_1D/object9F0Level101F1Level40.png,p,exemplar_display,62,91351,dense_right,p,5,True,101,-14.0,14.0
sub_01,dense_right,1138.2000000476837,img/object-9_120-levels_1D/object9F0Level117F1Level40.png,p,exemplar_display,64,93855,dense_right,p,5,True,117,16.0,16.0
sub_01,dense_right,735.5,img/object-9_120-levels_1D/object9F0Level89F1Level40.png,p,exemplar_display,66,96357,dense_right,p,5,True,89,-28.0,28.0
sub_01,dense_right,1089.6999998092651,img/object-9_120-levels_1D/object9F0Level99F1Level40.png,q,exemplar_display,68,98861,dense_right,p,5,False,99,10.0,10.0
sub_01,dense_right,880.5,img/object-9_120-levels_1D/object9F0Level81F1Level40.png,p,exemplar_display,70,101366,dense_right,p,5,True,81,-18.0,18.0
sub_01,dense_right,642.9000000953674,img/object-9_120-levels_1D/object9F0Level105F1Level40.png,q,exemplar_display,72,103869,dense_right,p,5,False,105,24.0,24.0
sub_01,dense_right,1594.8999998569489,img/object-9_120-levels_1D/object9F0Level97F1Level40.png,p,exemplar_display,74,106383,dense_right,p,5,True,97,-8.0,8.0
sub_01,dense_right,663.7000000476837,img/object-9_120-levels_1D/object9F0Level99F1Level40.png,q,exemplar_display,76,108886,dense_right,p,5,False,99,2.0,2.0
sub_01,dense_right,911.8999998569489,img/object-9_120-levels_1D/object9F0Level79F1Level40.png,p,exemplar_display,78,111390,dense_right,p,5,True,79,-20.0,20.0
sub_01,dense_right,1367.2999999523163,img/object-9_120-levels_1D/object9F0Level79F1Level40.png,q,exemplar_display,80,113893,dense_right,q,5,True,79,0.0,0.0
sub_01,dense_right,1128.5,img/object-9_120-levels_1D/object9F0Level83F1Level40.png,q,exemplar_display,82,116397,dense_right,p,5,False,83,4.0,4.0
sub_01,dense_right,910.1000001430511,img/object-9_120-levels_1D/object9F0Level93F1Level40.png,p,exemplar_display,84,118900,dense_right,p,5,True,93,10.0,10.0
sub_02,dense_left,,img/object-9_120-levels_1D/object9F0Level35F1Level40.png,,exemplar_display,2,5682,dense_left,,1,,35,,
sub_02,dense_left,1361.5999999996275,img/object-9_120-levels_1D/object9F0Level67F1Level40.png,p,exemplar_display,4,8190,dense_left,p,1,True,67,32.0,32.0
sub_02,dense_left,1799.8999999985099,img/object-9_120-levels_1D/object9F0Level61F1Level40.png,p,exemplar_display,6,10697,dense_left,p,1,True,61,-6.0,6.0
sub_02,dense_left,914.5999999996275,img/object-9_120-levels_1D/object9F0Level33F1Level40.png,p,exemplar_display,8,13206,dense_left,p,1,True,33,-28.0,28.0
sub_02,dense_left,1031.0999999996275,img/object-9_120-levels_1D/object9F0Level59F1Level40.png,p,exemplar_display,10,15713,dense_left,p,1,True,59,26.0,26.0
sub_02,dense_left,709.3000000007451,img/object-9_120-levels_1D/object9F0Level59F1Level40.png,q,exemplar_display,12,18220,dense_left,q,1,True,59,0.0,0.0
sub_02,dense_left,1070.800000000745,img/object-9_120-levels_1D/object9F0Level45F1Level40.png,q,exemplar_display,14,20728,dense_left,p,1,False,45,-14.0,14.0
sub_02,dense_left,714.7999999988824,img/object-9_120-levels_1D/object9F0Level33F1Level40.png,q,exemplar_display,16,23236,dense_left,p,1,False,33,-12.0,12.0
sub_02,dense_left,671.5,img/object-9_120-levels_1D/object9F0Level67F1Level40.png,p,exemplar_display,18,25744,dense_left,p,1,True,67,34.0,34.0
sub_02,dense_left,971.0999999996275,img/object-9_120-levels_1D/object9F0Level39F1Level40.png,p,exemplar_display,20,28255,dense_left,p,1,True,39,-28.0,28.0
sub_02,dense_left,783.5999999996275,img/object-9_120-levels_1D/object9F0Level63F1Level40.png,p,exemplar_display,22,30761,dense_left,p,1,True,63,24.0,24.0
sub_02,dense_left,831.2000000011176,img/object-9_120-levels_1D/object9F0Level37F1Level40.png,p,exemplar_display,24,33268,dense_left,p,1,True,37,-26.0,26.0
sub_02,dense_left,615.0,img/object-9_120-levels_1D/object9F0Level49F1Level40.png,p,exemplar_display,26,35778,dense_left,p,1,True,49,12.0,12.0
sub_02,dense_left,662.0,img/object-9_120-levels_1D/object9F0Level53F1Level40.png,p,exemplar_display,28,38284,dense_left,p,1,True,53,4.0,4.0
sub_02,dense_left,640.4000000003725,img/object-9_120-levels_1D/object9F0Level55F1Level40.png,p,exemplar_display,30,40792,dense_left,p,1,True,55,2.0,2.0
sub_02,dense_left,501.40000000037253,img/object-9_120-levels_1D/object9F0Level55F1Level40.png,p,exemplar_display,32,43300,dense_left,q,1,False,55,0.0,0.0
sub_02,dense_left,1044.4000000003725,img/object-9_120-levels_1D/object9F0Level37F1Level40.png,q,exemplar_display,34,45807,dense_left,p,1,False,37,-18.0,18.0
sub_02,dense_left,611.9000000003725,img/object-9_120-levels_1D/object9F0Level59F1Level40.png,q,exemplar_display,36,48315,dense_left,p,1,False,59,22.0,22.0
sub_02,dense_left,849.4000000003725,img/object-9_120-levels_1D/object9F0Level29F1Level40.png,p,exemplar_display,38,50823,dense_left,p,1,True,29,-30.0,30.0
sub_02,dense_left,1250.0,img/object-9_120-levels_1D/object9F0Level51F1Level40.png,q,exemplar_display,40,53331,dense_left,p,1,False,51,22.0,22.0
sub_02,dense_left,1027.7999999988824,img/object-9_120-levels_1D/object9F0Level31F1Level40.png,p,exemplar_display,42,55838,dense_left,p,1,True,31,-20.0,20.0
sub_02,dense_left,756.2000000011176,img/object-9_120-levels_1D/object9F0Level51F1Level40.png,p,exemplar_display,44,58346,dense_left,p,1,True,51,20.0,20.0
sub_02,dense_left,576.5999999996275,img/object-9_120-levels_1D/object9F0Level51F1Level40.png,q,exemplar_display,46,60854,dense_left,q,1,True,51,0.0,0.0
sub_02,dense_left,456.80000000074506,img/object-9_120-levels_1D/object9F0Level51F1Level40.png,q,exemplar_display,48,63362,dense_left,q,1,True,51,0.0,0.0
sub_02,dense_left,552.7000000011176,img/object-9_120-levels_1D/object9F0Level45F1Level40.png,q,exemplar_display,50,65892,dense_left,p,1,False,45,-6.0,6.0
sub_02,dense_left,570.3999999985099,img/object-9_120-levels_1D/object9F0Level57F1Level40.png,q,exemplar_display,52,68400,dense_left,p,1,False,57,12.0,12.0
sub_02,dense_left,620.3000000007451,img/object-9_120-levels_1D/object9F0Level39F1Level40.png,q,exemplar_display,54,70908,dense_left,p,1,False,39,-18.0,18.0
sub_02,dense_left,498.80000000074506,img/object-9_120-levels_1D/object9F0Level41F1Level40.png,q,exemplar_display,56,73416,dense_left,p,1,False,41,2.0,2.0
sub_02,dense_left,913.5999999996275,img/object-9_120-levels_1D/object9F0Level57F1Level40.png,q,exemplar_display,58,75924,dense_left,p,1,False,57,16.0,16.0
sub_02,dense_left,776.5999999996275,img/object-9_120-levels_1D/object9F0Level51F1Level40.png,q,exemplar_display,60,78432,dense_left,p,1,False,51,-6.0,6.0
sub_02,dense_left,564.5,img/object-9_120-levels_1D/object9F0Level33F1Level40.png,q,exemplar_display,62,80945,dense_left,p,1,False,33,-18.0,18.0
sub_02,dense_left,903.0,img/object-9_120-levels_1D/object9F0Level35F1Level40.png,q,exemplar_display,64,83453,dense_left,p,1,False,35,2.0,2.0
sub_02,dense_left,954.5,img/object-9_120-levels_1D/object9F0Level53F1Level40.png,p,exemplar_display,66,85961,dense_left,p,1,True,53,18.0,18.0
sub_02,dense_left,891.5999999996275,img/object-9_120-levels_1D/object9F0Level61F1Level40.png,p,exemplar_display,68,88469,dense_left,p,1,True,61,8.0,8.0
sub_02,dense_left,826.0999999996275,img/object-9_120-levels_1D/object9F0Level43F1Level40.png,p,exemplar_display,70,90976,dense_left,p,1,True,43,-18.0,18.0
sub_02,dense_left,563.0999999996275,img/object-9_120-levels_1D/object9F0Level31F1Level40.png,q,exemplar_display,72,93485,dense_left,p,1,False,31,-12.0,12.0
sub_02,dense_left,713.0,img/object-9_120-levels_1D/object9F0Level59F1Level40.png,p,exemplar_display,74,95992,dense_left,p,1,True,59,28.0,28.0
sub_02,dense_left,1069.5999999996275,img/object-9_120-levels_1D/object9F0Level61F1Level40.png,q,exemplar_display,76,98500,dense_left,p,1,False,61,2.0,2.0
sub_02,dense_left,551.0,img/object-9_120-levels_1D/object9F0Level65F1Level40.png,q,exemplar_display,78,101007,dense_left,p,1,False,65,4.0,4.0
sub_02,dense_left,529.1999999992549,img/object-9_120-levels_1D/object9F0Level67F1Level40.png,q,exemplar_display,80,103515,dense_left,p,1,False,67,2.0,2.0
sub_02,dense_left,761.6999999992549,img/object-9_120-levels_1D/object9F0Level31F1Level40.png,p,exemplar_display,82,106023,dense_left,p,1,True,31,-36.0,36.0
sub_02,dense_left,598.5999999996275,img/object-9_120-levels_1D/object9F0Level35F1Level40.png,q,exemplar_display,84,108531,dense_left,p,1,False,35,4.0,4.0
sub_02,dense_left,,img/object-9_120-levels_1D/object9F0Level57F1Level40.png,,exemplar_display,2,5938,dense_left,p,2,,57,22.0,22.0
sub_02,dense_left,1129.5,img/object-9_120-levels_1D/object9F0Level55F1Level40.png,q,exemplar_display,4,8444,dense_left,p,2,False,55,-2.0,2.0
sub_02,dense_left,977.9000000003725,img/object-9_120-levels_1D/object9F0Level29F1Level40.png,q,exemplar_display,6,10953,dense_left,p,2,False,29,-26.0,26.0
sub_02,dense_left,600.1999999992549,img/object-9_120-levels_1D/object9F0Level67F1Level40.png,p,exemplar_display,8,13461,dense_left,p,2,True,67,38.0,38.0
sub_02,dense_left,1330.2999999988824,img/object-9_120-levels_1D/object9F0Level53F1Level40.png,q,exemplar_display,10,15968,dense_left,p,2,False,53,-14.0,14.0
sub_02,dense_left,1275.5,img/object-9_120-levels_1D/object9F0Level33F1Level40.png,p,exemplar_display,12,18473,dense_left,p,2,True,33,-20.0,20.0
sub_02,dense_left,1284.6000000014901,img/object-9_120-levels_1D/object9F0Level69F1Level40.png,q,exemplar_display,14,20978,dense_left,p,2,False,69,36.0,36.0
sub_02,dense_left,736.5,img/object-9_120-levels_1D/object9F0Level47F1Level40.png,p,exemplar_display,16,23486,dense_left,p,2,True,47,-22.0,22.0
sub_02,dense_left,930.0,img/object-9_120-levels_1D/object9F0Level35F1Level40.png,q,exemplar_display,18,25994,dense_left,p,2,False,35,-12.0,12.0
sub_02,dense_left,645.5,img/object-9_120-levels_1D/object9F0Level39F1Level40.png,q,exemplar_display,20,28501,dense_left,p,2,False,39,4.0,4.0
sub_02,dense_left,484.90000000037253,img/object-9_120-levels_1D/object9F0Level37F1Level40.png,q,exemplar_display,22,31006,dense_left,p,2,False,37,-2.0,2.0
sub_02,dense_left,953.5,img/object-9_120-levels_1D/object9F0Level59F1Level40.png,p,exemplar_display,24,33512,dense_left,p,2,True,59,22.0,22.0
sub_02,dense_left,634.6999999992549,img/object-9_120-levels_1D/object9F0Level41F1Level40.png,q,exemplar_display,26,36024,dense_left,p,2,False,41,-18.0,18.0
sub_02,dense_left,598.4000000003725,img/object-9_120-levels_1D/object9F0Level61F1Level40.png,p,exemplar_display,28,38537,dense_left,p,2,True,61,20.0,20.0
sub_02,dense_left,725.4000000003725,img/object-9_120-levels_1D/object9F0Level39F1Level40.png,p,exemplar_display,30,41047,dense_left,p,2,True,39,-22.0,22.0
sub_02,dense_left,739.5,img/object-9_120-levels_1D/object9F0Level61F1Level40.png,q,exemplar_display,32,43558,dense_left,p,2,False,61,22.0,22.0
sub_02,dense_left,931.0,img/object-9_120-levels_1D/object9F0Level61F1Level40.png,q,exemplar_display,34,46063,dense_left,q,2,True,61,0.0,0.0
sub_02,dense_left,879.2999999988824,img/object-9_120-levels_1D/object9F0Level63F1Level40.png,q,exemplar_display,36,48573,dense_left,p,2,False,63,2.0,2.0
sub_02,dense_left,1778.4000000003725,img/object-9_120-levels_1D/object9F0Level63F1Level40.png,p,exemplar_display,38,51078,dense_left,q,2,False,63,0.0,0.0
sub_02,dense_left,2302.4000000003725,img/object-9_120-levels_1D/object9F0Level65F1Level40.png,q,exemplar_display,40,53887,dense_left,p,2,False,65,2.0,2.0
sub_02,dense_left,902.7000000011176,img/object-9_120-levels_1D/object9F0Level39F1Level40.png,q,exemplar_display,42,56396,dense_left,p,2,False,39,-26.0,26.0
sub_02,dense_left,543.2999999988824,img/object-9_120-levels_1D/object9F0Level39F1Level40.png,q,exemplar_display,44,58906,dense_left,q,2,True,39,0.0,0.0
sub_02,dense_left,726.5,img/object-9_120-levels_1D/object9F0Level69F1Level40.png,p,exemplar_display,46,61411,dense_left,p,2,True,69,30.0,30.0
sub_02,dense_left,572.3000000007451,img/object-9_120-levels_1D/object9F0Level69F1Level40.png,p,exemplar_display,48,63919,dense_left,q,2,False,69,0.0,0.0
sub_02,dense_left,741.7000000011176,img/object-9_120-levels_1D/object9F0Level67F1Level40.png,q,exemplar_display,50,66432,dense_left,p,2,False,67,-2.0,2.0
sub_02,dense_left,547.1999999992549,img/object-9_120-levels_1D/object9F0Level65F1Level40.png,q,exemplar_display,52,68940,dense_left,p,2,False,65,-2.0,2.0
sub_02,dense_left,707.5999999996275,img/object-9_120-levels_1D/object9F0Level65F1Level40.png,q,exemplar_display,54,71448,dense_left,q,2,True,65,0.0,0.0
sub_02,dense_left,564.0,img/object-9_120-levels_1D/object9F0Level67F1Level40.png,q,exemplar_display,56,73956,dense_left,p,2,False,67,2.0,2.0
sub_02,dense_left,646.9000000003725,img/object-9_120-levels_1D/object9F0Level37F1Level40.png,p,exemplar_display,58,76464,dense_left,p,2,True,37,-30.0,30.0
sub_02,dense_left,1261.9000000003725,img/object-9_120-levels_1D/object9F0Level67F1Level40.png,q,exemplar_display,60,78971,dense_left,p,2,False,67,30.0,30.0
sub_02,dense_left,648.8999999985099,img/object-9_120-levels_1D/object9F0Level43F1Level40.png,p,exemplar_display,62,81477,dense_left,p,2,True,43,-24.0,24.0
sub_02,dense_left,1082.800000000745,img/object-9_120-levels_1D/object9F0Level57F1Level40.png,q,exemplar_display,64,83990,dense_left,p,2,False,57,14.0,14.0
sub_02,dense_left,710.3000000007451,img/object-9_120-levels_1D/object9F0Level57F1Level40.png,q,exemplar_display,66,86494,dense_left,q,2,True,57,0.0,0.0
sub_02,dense_left,663.1999999992549,img/object-9_120-levels_1D/object9F0Level43F1Level40.png,q,exemplar_display,68,89002,dense_left,p,2,False,43,-14.0,14.0
sub_02,dense_left,525.6999999992549,img/object-9_120-levels_1D/object9F0Level31F1Level40.png,q,exemplar_display,70,91510,dense_left,p,2,False,31,-12.0,12.0
sub_02,dense_left,604.6999999992549,img/object-9_120-levels_1D/object9F0Level31F1Level40.png,q,exemplar_display,72,94039,dense_left,q,2,True,31,0.0,0.0
sub_02,dense_left,1132.2000000011176,img/object-9_120-levels_1D/object9F0Level67F1Level40.png,p,exemplar_display,74,96549,dense_left,p,2,True,67,36.0,36.0
sub_02,dense_left,627.1999999992549,img/object-9_120-levels_1D/object9F0Level69F1Level40.png,p,exemplar_display,76,99056,dense_left,p,2,True,69,2.0,2.0
sub_02,dense_left,1138.4000000003725,img/object-9_120-levels_1D/object9F0Level57F1Level40.png,p,exemplar_display,78,101565,dense_left,p,2,True,57,-12.0,12.0
sub_02,dense_left,773.5,img/object-9_120-levels_1D/object9F0Level57F1Level40.png,q,exemplar_display,80,104072,dense_left,q,2,True,57,0.0,0.0
sub_02,dense_left,691.5999999996275,img/object-9_120-levels_1D/object9F0Level69F1Level40.png,p,exemplar_display,82,106580,dense_left,p,2,True,69,12.0,12.0
sub_02,dense_left,1356.5999999996275,img/object-9_120-levels_1D/object9F0Level69F1Level40.png,q,exemplar_display,84,109092,dense_left,q,2,True,69,0.0,0.0
sub_02,dense_left,2140.5999999996275,img/object-9_120-levels_1D/object9F0Level59F1Level40.png,p,exemplar_display,2,5019,dense_left,p,3,,59,-10.0,10.0
sub_02,dense_left,1045.9000000003725,img/object-9_120-levels_1D/object9F0Level55F1Level40.png,q,exemplar_display,4,7527,dense_left,p,3,False,55,-4.0,4.0
sub_02,dense_left,518.0999999996275,img/object-9_120-levels_1D/object9F0Level43F1Level40.png,q,exemplar_display,6,10037,dense_left,p,3,False,43,-12.0,12.0
sub_02,dense_left,654.5,img/object-9_120-levels_1D/object9F0Level53F1Level40.png,q,exemplar_display,8,12543,dense_left,p,3,False,53,10.0,10.0
sub_02,dense_left,1645.5999999996275,img/object-9_120-levels_1D/object9F0Level61F1Level40.png,q,exemplar_display,10,15050,dense_left,p,3,False,61,8.0,8.0
sub_02,dense_left,616.5,img/object-9_120-levels_1D/object9F0Level61F1Level40.png,q,exemplar_display,12,17558,dense_left,q,3,True,61,0.0,0.0
sub_02,dense_left,660.5999999996275,img/object-9_120-levels_1D/object9F0Level43F1Level40.png,q,exemplar_display,14,20066,dense_left,p,3,False,43,-18.0,18.0
sub_02,dense_left,546.9000000003725,img/object-9_120-levels_1D/object9F0Level55F1Level40.png,q,exemplar_display,16,22574,dense_left,p,3,False,55,12.0,12.0
sub_02,dense_left,561.0,img/object-9_120-levels_1D/object9F0Level59F1Level40.png,q,exemplar_display,18,25083,dense_left,p,3,False,59,4.0,4.0
sub_02,dense_left,509.0,img/object-9_120-levels_1D/object9F0Level55F1Level40.png,q,exemplar_display,20,27589,dense_left,p,3,False,55,-4.0,4.0
sub_02,dense_left,1163.7000000011176,img/object-9_120-levels_1D/object9F0Level35F1Level40.png,q,exemplar_display,22,30098,dense_left,p,3,False,35,-20.0,20.0
sub_02,dense_left,1810.300000000745,img/object-9_120-levels_1D/object9F0Level63F1Level40.png,q,exemplar_display,24,32606,dense_left,p,3,False,63,28.0,28.0
sub_02,dense_left,1241.5999999996275,img/object-9_120-levels_1D/object9F0Level43F1Level40.png,p,exemplar_display,26,35114,dense_left,p,3,True,43,-20.0,20.0
sub_02,dense_left,918.8000000007451,img/object-9_120-levels_1D/object9F0Level37F1Level40.png,q,exemplar_display,28,37626,dense_left,p,3,False,37,-6.0,6.0
sub_02,dense_left,622.0,img/object-9_120-levels_1D/object9F0Level69F1Level40.png,p,exemplar_display,30,40136,dense_left,p,3,True,69,32.0,32.0
sub_02,dense_left,651.6999999992549,img/object-9_120-levels_1D/object9F0Level37F1Level40.png,q,exemplar_display,32,42643,dense_left,p,3,False,37,-32.0,32.0
sub_02,dense_left,498.40000000037253,img/object-9_120-levels_1D/object9F0Level37F1Level40.png,q,exemplar_display,34,45151,dense_left,q,3,True,37,0.0,0.0
sub_02,dense_left,601.0,img/object-9_120-levels_1D/object9F0Level65F1Level40.png,p,exemplar_display,36,47658,dense_left,p,3,True,65,28.0,28.0
sub_02,dense_left,1019.0999999996275,img/object-9_120-levels_1D/object9F0Level63F1Level40.png,q,exemplar_display,38,50167,dense_left,p,3,False,63,-2.0,2.0
sub_02,dense_left,802.3000000007451,img/object-9_120-levels_1D/object9F0Level59F1Level40.png,q,exemplar_display,40,52674,dense_left,p,3,False,59,-4.0,4.0
sub_02,dense_left,785.8999999985099,img/object-9_120-levels_1D/object9F0Level45F1Level40.png,p,exemplar_display,42,55185,dense_left,p,3,True,45,-14.0,14.0
sub_02,dense_left,976.6000000014901,img/object-9_120-levels_1D/object9F0Level45F1Level40.png,q,exemplar_display,44,57695,dense_left,q,3,True,45,0.0,0.0
sub_02,dense_left,1095.699999999255,img/object-9_120-levels_1D/object9F0Level51F1Level40.png,q,exemplar_display,46,60203,dense_left,p,3,False,51,6.0,6.0
sub_02,dense_left,1051.0,img/object-9_120-levels_1D/object9F0Level59F1Level40.png,q,exemplar_display,48,62710,dense_left,p,3,False,59,8.0,8.0
sub_02,dense_left,700.0,img/object-9_120-levels_1D/object9F0Level59F1Level40.png,q,exemplar_display,50,65219,dense_left,q,3,True,59,0.0,0.0
sub_02,dense_left,1018.5,img/object-9_120-levels_1D/object9F0Level65F1Level40.png,p,exemplar_display,52,67726,dense_left,p,3,True,65,6.0,6.0
sub_02,dense_left,607.0,img/object-9_120-levels_1D/object9F0Level41F1Level40.png,q,exemplar_display,54,70234,dense_left,p,3,False,41,-24.0,24.0
sub_02,dense_left,659.5,img/object-9_120-levels_1D/object9F0Level45F1Level40.png,q,exemplar_display,56,72742,dense_left,p,3,False,45,4.0,4.0
sub_02,dense_left,789.0999999996275,img/object-9_120-levels_1D/object9F0Level53F1Level40.png,q,exemplar_display,58,75250,dense_left,p,3,False,53,8.0,8.0
sub_02,dense_left,726.7999999988824,img/object-9_120-levels_1D/object9F0Level53F1Level40.png,q,exemplar_display,60,77757,dense_left,q,3,True,53,0.0,0.0
sub_02,dense_left,565.7000000011176,img/object-9_120-levels_1D/object9F0Level49F1Level40.png,q,exemplar_display,62,80265,dense_left,p,3,False,49,-4.0,4.0
sub_02,dense_left,579.5999999996275,img/object-9_120-levels_1D/object9F0Level31F1Level40.png,q,exemplar_display,64,82770,dense_left,p,3,False,31,-18.0,18.0
sub_02,dense_left,620.2999999988824,img/object-9_120-levels_1D/object9F0Level31F1Level40.png,q,exemplar_display,66,85281,dense_left,q,3,True,31,0.0,0.0
sub_02,dense_left,893.0,img/object-9_120-levels_1D/object9F0Level63F1Level40.png,p,exemplar_display,68,87789,dense_left,p,3,True,63,32.0,32.0
sub_02,dense_left,741.0,img/object-9_120-levels_1D/object9F0Level35F1Level40.png,q,exemplar_display,70,90314,dense_left,p,3,False,35,-28.0,28.0
sub_02,dense_left,716.4000000003725,img/object-9_120-levels_1D/object9F0Level43F1Level40.png,q,exemplar_display,72,92821,dense_left,p,3,False,43,8.0,8.0
sub_02,dense_left,2222.5,img/object-9_120-levels_1D/object9F0Level57F1Level40.png,q,exemplar_display,74,95551,dense_left,p,3,False,57,14.0,14.0
sub_02,dense_left,590.8000000007451,img/object-9_120-levels_1D/object9F0Level55F1Level40.png,q,exemplar_display,76,98058,dense_left,p,3,False,55,-2.0,2.0
sub_02,dense_left,566.1999999992549,img/object-9_120-levels_1D/object9F0Level33F1Level40.png,q,exemplar_display,78,100565,dense_left,p,3,False,33,-22.0,22.0
sub_02,dense_left,686.9000000003725,img/object-9_120-levels_1D/object9F0Level33F1Level40.png,q,exemplar_display,80,103073,dense_left,q,3,True,33,0.0,0.0
sub_02,dense_left,482.19999999925494,img/object-9_120-levels_1D/object9F0Level35F1Level40.png,q,exemplar_display,82,105581,dense_left,p,3,False,35,2.0,2.0
sub_02,dense_left,588.0,img/object-9_120-levels_1D/object9F0Level35F1Level40.png,q,exemplar_display,84,108089,dense_left,q,3,True,35,0.0,0.0
sub_02,dense_left,2542.0999999996275,img/object-9_120-levels_1D/object9F0Level47F1Level40.png,p,exemplar_display,2,5592,dense_left,p,4,,47,12.0,12.0
sub_02,dense_left,2645.5,img/object-9_120-levels_1D/object9F0Level67F1Level40.png,p,exemplar_display,4,8742,dense_left,p,4,True,67,20.0,20.0
sub_02,dense_left,901.3000000007451,img/object-9_120-levels_1D/object9F0Level53F1Level40.png,p,exemplar_display,6,11250,dense_left,p,4,True,53,-14.0,14.0
sub_02,dense_left,827.8000000007451,img/object-9_120-levels_1D/object9F0Level45F1Level40.png,q,exemplar_display,8,13758,dense_left,p,4,False,45,-8.0,8.0
sub_02,dense_left,819.6000000014901,img/object-9_120-levels_1D/object9F0Level63F1Level40.png,p,exemplar_display,10,16266,dense_left,p,4,True,63,18.0,18.0
sub_02,dense_left,655.8000000007451,img/object-9_120-levels_1D/object9F0Level41F1Level40.png,q,exemplar_display,12,18773,dense_left,p,4,False,41,-22.0,22.0
sub_02,dense_left,557.2999999988824,img/object-9_120-levels_1D/object9F0Level41F1Level40.png,q,exemplar_display,14,21281,dense_left,q,4,True,41,0.0,0.0
sub_02,dense_left,727.9000000003725,img/object-9_120-levels_1D/object9F0Level41F1Level40.png,q,exemplar_display,16,23786,dense_left,q,4,True,41,0.0,0.0
sub_02,dense_left,883.1999999992549,img/object-9_120-levels_1D/object9F0Level43F1Level40.png,q,exemplar_display,18,26290,dense_left,p,4,False,43,2.0,2.0
sub_02,dense_left,564.7000000011176,img/object-9_120-levels_1D/object9F0Level43F1Level40.png,q,exemplar_display,20,28799,dense_left,q,4,True,43,0.0,0.0
sub_02,dense_left,519.2000000011176,img/object-9_120-levels_1D/object9F0Level57F1Level40.png,q,exemplar_display,22,31308,dense_left,p,4,False,57,14.0,14.0
sub_02,dense_left,599.1999999992549,img/object-9_120-levels_1D/object9F0Level51F1Level40.png,q,exemplar_display,24,33819,dense_left,p,4,False,51,-6.0,6.0
sub_02,dense_left,629.7999999988824,img/object-9_120-levels_1D/object9F0Level39F1Level40.png,q,exemplar_display,26,36327,dense_left,p,4,False,39,-12.0,12.0
sub_02,dense_left,633.6000000014901,img/object-9_120-levels_1D/object9F0Level33F1Level40.png,q,exemplar_display,28,38837,dense_left,p,4,False,33,-6.0,6.0
sub_02,dense_left,551.7000000011176,img/object-9_120-levels_1D/object9F0Level45F1Level40.png,q,exemplar_display,30,41344,dense_left,p,4,False,45,12.0,12.0
sub_02,dense_left,985.5,img/object-9_120-levels_1D/object9F0Level41F1Level40.png,q,exemplar_display,32,43852,dense_left,p,4,False,41,-4.0,4.0
sub_02,dense_left,1220.8999999985099,img/object-9_120-levels_1D/object9F0Level57F1Level40.png,p,exemplar_display,34,46360,dense_left,p,4,True,57,16.0,16.0
sub_02,dense_left,934.3999999985099,img/object-9_120-levels_1D/object9F0Level47F1Level40.png,q,exemplar_display,36,48874,dense_left,p,4,False,47,-10.0,10.0
sub_02,dense_left,1504.5,img/object-9_120-levels_1D/object9F0Level49F1Level40.png,q,exemplar_display,38,51381,dense_left,p,4,False,49,2.0,2.0
sub_02,dense_left,729.3000000007451,img/object-9_120-levels_1D/object9F0Level65F1Level40.png,p,exemplar_display,40,53889,dense_left,p,4,True,65,16.0,16.0
sub_02,dense_left,854.0999999996275,img/object-9_120-levels_1D/object9F0Level29F1Level40.png,q,exemplar_display,42,56397,dense_left,p,4,False,29,-36.0,36.0
sub_02,dense_left,859.5,img/object-9_120-levels_1D/object9F0Level45F1Level40.png,p,exemplar_display,44,58905,dense_left,p,4,True,45,16.0,16.0
sub_02,dense_left,819.7000000011176,img/object-9_120-levels_1D/object9F0Level69F1Level40.png,p,exemplar_display,46,61412,dense_left,p,4,True,69,24.0,24.0
sub_02,dense_left,1016.5999999996275,img/object-9_120-levels_1D/object9F0Level29F1Level40.png,p,exemplar_display,48,63920,dense_left,p,4,True,29,-40.0,40.0
sub_02,dense_left,877.0,img/object-9_120-levels_1D/object9F0Level51F1Level40.png,p,exemplar_display,50,66428,dense_left,p,4,True,51,22.0,22.0
sub_02,dense_left,1003.8999999985099,img/object-9_120-levels_1D/object9F0Level51F1Level40.png,q,exemplar_display,52,68936,dense_left,q,4,True,51,0.0,0.0
sub_02,dense_left,826.5,img/object-9_120-levels_1D/object9F0Level55F1Level40.png,q,exemplar_display,54,71444,dense_left,p,4,False,55,4.0,4.0
sub_02,dense_left,582.8000000007451,img/object-9_120-levels_1D/object9F0Level47F1Level40.png,q,exemplar_display,56,73951,dense_left,p,4,False,47,-8.0,8.0
sub_02,dense_left,749.6999999992549,img/object-9_120-levels_1D/object9F0Level47F1Level40.png,q,exemplar_display,58,76459,dense_left,q,4,True,47,0.0,0.0
sub_02,dense_left,712.5999999996275,img/object-9_120-levels_1D/object9F0Level53F1Level40.png,q,exemplar_display,60,78967,dense_left,p,4,False,53,6.0,6.0
sub_02,dense_left,875.2999999988824,img/object-9_120-levels_1D/object9F0Level29F1Level40.png,p,exemplar_display,62,81476,dense_left,p,4,True,29,-24.0,24.0
sub_02,dense_left,1498.4000000003725,img/object-9_120-levels_1D/object9F0Level29F1Level40.png,q,exemplar_display,64,83982,dense_left,q,4,True,29,0.0,0.0
sub_02,dense_left,825.4000000003725,img/object-9_120-levels_1D/object9F0Level53F1Level40.png,p,exemplar_display,66,86490,dense_left,p,4,True,53,24.0,24.0
sub_02,dense_left,2157.199999999255,img/object-9_120-levels_1D/object9F0Level53F1Level40.png,q,exemplar_display,68,89154,dense_left,q,4,True,53,0.0,0.0
sub_02,dense_left,1142.2000000011176,img/object-9_120-levels_1D/object9F0Level47F1Level40.png,q,exemplar_display,70,91662,dense_left,p,4,False,47,-6.0,6.0
sub_02,dense_left,513.7000000011176,img/object-9_120-levels_1D/object9F0Level49F1Level40.png,p,exemplar_display,72,94170,dense_left,p,4,True,49,2.0,2.0
sub_02,dense_left,1135.2000000011176,img/object-9_120-levels_1D/object9F0Level29F1Level40.png,p,exemplar_display,74,96678,dense_left,p,4,True,29,-20.0,20.0
sub_02,dense_left,1503.2999999988824,img/object-9_120-levels_1D/object9F0Level29F1Level40.png,p,exemplar_display,76,99191,dense_left,q,4,False,29,0.0,0.0
sub_02,dense_left,858.2999999988824,img/object-9_120-levels_1D/object9F0Level49F1Level40.png,q,exemplar_display,78,101699,dense_left,p,4,False,49,20.0,20.0
sub_02,dense_left,740.7000000011176,img/object-9_120-levels_1D/object9F0Level63F1Level40.png,p,exemplar_display,80,104207,dense_left,p,4,True,63,14.0,14.0
sub_02,dense_left,805.7999999988824,img/object-9_120-levels_1D/object9F0Level63F1Level40.png,q,exemplar_display,82,106715,dense_left,q,4,True,63,0.0,0.0
sub_02,dense_left,689.5,img/object-9_120-levels_1D/object9F0Level49F1Level40.png,p,exemplar_display,84,109242,dense_left,p,4,True,49,-14.0,14.0
sub_02,dense_left,826.8000000007451,img/object-9_120-levels_1D/object9F0Level45F1Level40.png,p,exemplar_display,2,5018,dense_left,p,5,,45,-4.0,4.0
sub_02,dense_left,918.3000000007451,img/object-9_120-levels_1D/object9F0Level35F1Level40.png,q,exemplar_display,4,7526,dense_left,p,5,False,35,-10.0,10.0
sub_02,dense_left,696.4000000003725,img/object-9_120-levels_1D/object9F0Level35F1Level40.png,q,exemplar_display,6,10034,dense_left,q,5,True,35,0.0,0.0
sub_02,dense_left,637.6000000014901,img/object-9_120-levels_1D/object9F0Level45F1Level40.png,q,exemplar_display,8,12542,dense_left,p,5,False,45,10.0,10.0
sub_02,dense_left,752.1000000014901,img/object-9_120-levels_1D/object9F0Level37F1Level40.png,q,exemplar_display,10,15049,dense_left,p,5,False,37,-8.0,8.0
sub_02,dense_left,877.0,img/object-9_120-levels_1D/object9F0Level31F1Level40.png,q,exemplar_display,12,17559,dense_left,p,5,False,31,-6.0,6.0
sub_02,dense_left,986.0999999996275,img/object-9_120-levels_1D/object9F0Level69F1Level40.png,p,exemplar_display,14,20065,dense_left,p,5,True,69,38.0,38.0
sub_02,dense_left,838.5,img/object-9_120-levels_1D/object9F0Level33F1Level40.png,p,exemplar_display,16,22573,dense_left,p,5,True,33,-36.0,36.0
sub_02,dense_left,1218.2000000011176,img/object-9_120-levels_1D/object9F0Level49F1Level40.png,p,exemplar_display,18,25081,dense_left,p,5,True,49,16.0,16.0
sub_02,dense_left,907.7000000011176,img/object-9_120-levels_1D/object9F0Level49F1Level40.png,p,exemplar_display,20,27588,dense_left,q,5,False,49,0.0,0.0
sub_02,dense_left,1317.0,img/object-9_120-levels_1D/object9F0Level37F1Level40.png,p,exemplar_display,22,30098,dense_left,p,5,True,37,-12.0,12.0
sub_02,dense_left,649.8000000007451,img/object-9_120-levels_1D/object9F0Level37F1Level40.png,q,exemplar_display,24,32605,dense_left,q,5,True,37,0.0,0.0
sub_02,dense_left,1223.0,img/object-9_120-levels_1D/object9F0Level55F1Level40.png,p,exemplar_display,26,35113,dense_left,p,5,True,55,18.0,18.0
sub_02,dense_left,953.0999999996275,img/object-9_120-levels_1D/object9F0Level55F1Level40.png,q,exemplar_display,28,37625,dense_left,q,5,True,55,0.0,0.0
sub_02,dense_left,925.5999999996275,img/object-9_120-levels_1D/object9F0Level31F1Level40.png,p,exemplar_display,30,40134,dense_left,p,5,True,31,-24.0,24.0
sub_02,dense_left,649.6999999992549,img/object-9_120-levels_1D/object9F0Level67F1Level40.png,p,exemplar_display,32,42642,dense_left,p,5,True,67,36.0,36.0
sub_02,dense_left,725.2000000011176,img/object-9_120-levels_1D/object9F0Level31F1Level40.png,p,exemplar_display,34,45150,dense_left,p,5,True,31,-36.0,36.0
sub_02,dense_left,840.6999999992549,img/object-9_120-levels_1D/object9F0Level39F1Level40.png,q,exemplar_display,36,47658,dense_left,p,5,False,39,8.0,8.0
sub_02,dense_left,775.2000000011176,img/object-9_120-levels_1D/object9F0Level39F1Level40.png,q,exemplar_display,38,50166,dense_left,q,5,True,39,0.0,0.0
sub_02,dense_left,901.2999999988824,img/object-9_120-levels_1D/object9F0Level29F1Level40.png,q,exemplar_display,40,52673,dense_left,p,5,False,29,-10.0,10.0
sub_02,dense_left,697.4000000003725,img/object-9_120-levels_1D/object9F0Level69F1Level40.png,p,exemplar_display,42,55183,dense_left,p,5,True,69,40.0,40.0
sub_02,dense_left,1267.800000000745,img/object-9_120-levels_1D/object9F0Level47F1Level40.png,p,exemplar_display,44,57689,dense_left,p,5,True,47,-22.0,22.0
sub_02,dense_left,1069.9000000003725,img/object-9_120-levels_1D/object9F0Level41F1Level40.png,p,exemplar_display,46,60197,dense_left,p,5,True,41,-6.0,6.0
sub_02,dense_left,1097.5999999996275,img/object-9_120-levels_1D/object9F0Level41F1Level40.png,q,exemplar_display,48,62704,dense_left,q,5,True,41,0.0,0.0
sub_02,dense_left,564.7000000011176,img/object-9_120-levels_1D/object9F0Level65F1Level40.png,p,exemplar_display,50,65212,dense_left,p,5,True,65,24.0,24.0
sub_02,dense_left,1324.9000000003725,img/object-9_120-levels_1D/object9F0Level65F1Level40.png,q,exemplar_display,52,67720,dense_left,q,5,True,65,0.0,0.0
sub_02,dense_left,717.6000000014901,img/object-9_120-levels_1D/object9F0Level49F1Level40.png,p,exemplar_display,54,70228,dense_left,p,5,True,49,-16.0,16.0
sub_02,dense_left,1091.7000000011176,img/object-9_120-levels_1D/object9F0Level43F1Level40.png,p,exemplar_display,56,72735,dense_left,p,5,True,43,-6.0,6.0
sub_02,dense_left,806.6000000014901,img/object-9_120-levels_1D/object9F0Level61F1Level40.png,p,exemplar_display,58,75243,dense_left,p,5,True,61,18.0,18.0
sub_02,dense_left,900.6999999992549,img/object-9_120-levels_1D/object9F0Level39F1Level40.png,p,exemplar_display,60,77751,dense_left,p,5,True,39,-22.0,22.0
sub_02,dense_left,715.9000000003725,img/object-9_120-levels_1D/object9F0Level65F1Level40.png,p,exemplar_display,62,80259,dense_left,p,5,True,65,26.0,26.0
sub_02,dense_left,1233.0,img/object-9_120-levels_1D/object9F0Level51F1Level40.png,p,exemplar_display,64,82766,dense_left,p,5,True,51,-14.0,14.0
sub_02,dense_left,1330.4000000003725,img/object-9_120-levels_1D/object9F0Level33F1Level40.png,p,exemplar_display,66,85274,dense_left,p,5,True,33,-18.0,18.0
sub_02,dense_left,802.1999999992549,img/object-9_120-levels_1D/object9F0Level33F1Level40.png,p,exemplar_display,68,87782,dense_left,q,5,False,33,0.0,0.0
sub_02,dense_left,698.7999999988824,img/object-9_120-levels_1D/object9F0Level63F1Level40.png,p,exemplar_display,70,90290,dense_left,p,5,True,63,30.0,30.0
sub_02,dense_left,608.7000000011176,img/object-9_120-levels_1D/object9F0Level61F1Level40.png,q,exemplar_display,72,92821,dense_left,p,5,False,61,-2.0,2.0
sub_02,dense_left,733.6999999992549,img/object-9_120-levels_1D/object9F0Level47F1Level40.png,p,exemplar_display,74,95328,dense_left,p,5,True,47,-14.0,14.0
sub_02,dense_left,762.3000000007451,img/object-9_120-levels_1D/object9F0Level49F1Level40.png,q,exemplar_display,76,97836,dense_left,p,5,False,49,2.0,2.0
sub_02,dense_left,1063.0,img/object-9_120-levels_1D/object9F0Level29F1Level40.png,p,exemplar_display,78,100344,dense_left,p,5,True,29,-20.0,20.0
sub_02,dense_left,935.4000000003725,img/object-9_120-levels_1D/object9F0Level41F1Level40.png,q,exemplar_display,80,102852,dense_left,p,5,False,41,12.0,12.0
sub_02,dense_left,715.4000000003725,img/object-9_120-levels_1D/object9F0Level47F1Level40.png,q,exemplar_display,82,105360,dense_left,p,5,False,47,6.0,6.0
sub_02,dense_left,1145.5,img/object-9_120-levels_1D/object9F0Level47F1Level40.png,q,exemplar_display,84,107867,dense_left,q,5,True,47,0.0,0.0
sub_03,dense_right,1404.199999988079,img/object-9_120-levels_1D/object9F0Level87F1Level40.png,q,exemplar_display,2,7568,dense_right,,1,,87,,
sub_03,dense_right,,img/object-9_120-levels_1D/object9F0Level93F1Level40.png,,exemplar_display,4,11088,dense_right,p,1,False,93,6.0,6.0
sub_03,dense_right,2041.699999988079,img/object-9_120-levels_1D/object9F0Level107F1Level40.png,q,exemplar_display,6,13654,dense_right,p,1,False,107,14.0,14.0
sub_03,dense_right,1066.1000000238419,img/object-9_120-levels_1D/object9F0Level87F1Level40.png,q,exemplar_display,8,16188,dense_right,p,1,False,87,-20.0,20.0
sub_03,dense_right,1031.5,img/object-9_120-levels_1D/object9F0Level87F1Level40.png,q,exemplar_display,10,18729,dense_right,q,1,True,87,0.0,0.0
sub_03,dense_right,805.3000000119209,img/object-9_120-levels_1D/object9F0Level107F1Level40.png,q,exemplar_display,12,21258,dense_right,p,1,False,107,20.0,20.0
sub_03,dense_right,1296.199999988079,img/object-9_120-levels_1D/object9F0Level107F1Level40.png,q,exemplar_display,14,23798,dense_right,q,1,True,107,0.0,0.0
sub_03,dense_right,1389.1000000238419,img/object-9_120-levels_1D/object9F0Level105F1Level40.png,q,exemplar_display,16,26338,dense_right,p,1,False,105,-2.0,2.0
sub_03,dense_right,1221.4000000357628,img/object-9_120-levels_1D/object9F0Level111F1Level40.png,q,exemplar_display,18,28868,dense_right,p,1,False,111,6.0,6.0
sub_03,dense_right,870.5999999642372,img/object-9_120-levels_1D/object9F0Level115F1Level40.png,q,exemplar_display,20,31390,dense_right,p,1,False,115,4.0,4.0
sub_03,dense_right,510.10000002384186,img/object-9_120-levels_1D/object9F0Level115F1Level40.png,q,exemplar_display,22,33895,dense_right,q,1,True,115,0.0,0.0
sub_03,dense_right,557.0999999642372,img/object-9_120-levels_1D/object9F0Level115F1Level40.png,q,exemplar_display,24,36408,dense_right,q,1,True,115,0.0,0.0
sub_03,dense_right,620.0999999642372,img/object-9_120-levels_1D/object9F0Level115F1Level40.png,q,exemplar_display,26,38914,dense_right,q,1,True,115,0.0,0.0
sub_03,dense_right,582.5,img/object-9_120-levels_1D/object9F0Level105F1Level40.png,q,exemplar_display,28,41423,dense_right,p,1,False,105,-10.0,10.0
sub_03,dense_right,677.8000000119209,img/object-9_120-levels_1D/object9F0Level101F1Level40.png,q,exemplar_display,30,43927,dense_right,p,1,False,101,-4.0,4.0
sub_03,dense_right,1229.300000011921,img/object-9_120-levels_1D/object9F0Level103F1Level40.png,q,exemplar_display,32,46433,dense_right,p,1,False,103,2.0,2.0
sub_03,dense_right,540.5,img/object-9_120-levels_1D/object9F0Level103F1Level40.png,q,exemplar_display,34,48937,dense_right,q,1,True,103,0.0,0.0
sub_03,dense_right,669.5999999642372,img/object-9_120-levels_1D/object9F0Level101F1Level40.png,q,exemplar_display,36,51442,dense_right,p,1,False,101,-2.0,2.0
sub_03,dense_right,778.6000000238419,img/object-9_120-levels_1D/object9F0Level93F1Level40.png,q,exemplar_display,38,53946,dense_right,p,1,False,93,-8.0,8.0
