prolific_id,pilot_paradigm,counterbalancing,rt,stimulus,response,trial_stage,trial_index,time_elapsed,cb_condition,correct_response,session,correct,stim_val,dist_from_prev,dist_abs_from_prev
sub_01,1,dense_left,,img/object-9_120-levels_1D/object9F0Level37F1Level40.png,,exemplar_display,2,7700,dense_left,,1,,38,,
sub_01,1,dense_left,1291.199999988079,img/object-9_120-levels_1D/object9F0Level31F1Level40.png,p,exemplar_display,4,10205,dense_left,p,1,True,32,-6.0,6.0
sub_01,1,dense_left,1633.699999988079,img/object-9_120-levels_1D/object9F0Level35F1Level40.png,q,exemplar_display,6,12712,dense_left,p,1,False,36,4.0,4.0
sub_01,1,dense_left,1149.5,img/object-9_120-levels_1D/object9F0Level35F1Level40.png,p,exemplar_display,8,15221,dense_left,q,1,False,36,0.0,0.0
sub_01,1,dense_left,983.1000000238419,img/object-9_120-levels_1D/object9F0Level59F1Level40.png,p,exemplar_display,10,17732,dense_left,p,1,True,60,24.0,24.0
sub_01,1,dense_left,1625.5,img/object-9_120-levels_1D/object9F0Level45F1Level40.png,q,exemplar_display,12,20240,dense_left,p,1,False,46,-14.0,14.0
sub_01,1,dense_left,1203.699999988079,img/object-9_120-levels_1D/object9F0Level65F1Level40.png,p,exemplar_display,14,22749,dense_left,p,1,True,66,20.0,20.0
sub_01,1,dense_left,1175.699999988079,img/object-9_120-levels_1D/object9F0Level65F1Level40.png,q,exemplar_display,16,25257,dense_left,q,1,True,66,0.0,0.0
sub_01,1,dense_left,823.6000000238419,img/object-9_120-levels_1D/object9F0Level35F1Level40.png,p,exemplar_display,18,27766,dense_left,p,1,True,36,-30.0,30.0
sub_01,1,dense_left,1195.5,img/object-9_120-levels_1D/object9F0Level45F1Level40.png,p,exemplar_display,20,30280,dense_left,p,1,True,46,10.0,10.0
sub_01,1,dense_left,798.8000000119209,img/object-9_120-levels_1D/object9F0Level65F1Level40.png,p,exemplar_display,22,32787,dense_left,p,1,True,66,20.0,20.0
sub_01,1,dense_left,1087.800000011921,img/object-9_120-levels_1D/object9F0Level57F1Level40.png,p,exemplar_display,24,35294,dense_left,p,1,True,58,-8.0,8.0
sub_01,1,dense_left,910.1999999880791,img/object-9_120-levels_1D/object9F0Level57F1Level40.png,q,exemplar_display,26,37800,dense_left,q,1,True,58,0.0,0.0
sub_01,1,dense_left,1167.699999988079,img/object-9_120-levels_1D/object9F0Level41F1Level40.png,p,exemplar_display,28,40307,dense_left,p,1,True,42,-16.0,16.0
sub_01,1,dense_left,826.7999999523163,img/object-9_120-levels_1D/object9F0Level45F1Level40.png,q,exemplar_display,30,42814,dense_left,p,1,False,46,4.0,4.0
sub_01,1,dense_left,1008.7999999523163,img/object-9_120-levels_1D/object9F0Level33F1Level40.png,p,exemplar_display,32,45320,dense_left,p,1,True,34,-12.0,12.0
sub_01,1,dense_left,1006.6999999880791,img/object-9_120-levels_1D/object9F0Level51F1Level40.png,p,exemplar_display,34,47832,dense_left,p,1,True,52,18.0,18.0
sub_01,1,dense_left,778.3999999761581,img/object-9_120-levels_1D/object9F0Level33F1Level40.png,p,exemplar_display,36,50339,dense_left,p,1,True,34,-18.0,18.0
sub_01,1,dense_left,765.6999999880791,img/object-9_120-levels_1D/object9F0Level59F1Level40.png,p,exemplar_display,38,52846,dense_left,p,1,True,60,26.0,26.0
sub_01,1,dense_left,817.7999999523163,img/object-9_120-levels_1D/object9F0Level69F1Level40.png,p,exemplar_display,40,55352,dense_left,p,1,True,70,10.0,10.0
sub_01,1,dense_left,699.2000000476837,img/object-9_120-levels_1D/object9F0Level69F1Level40.png,q,exemplar_display,42,57859,dense_left,q,1,True,70,0.0,0.0
sub_01,1,dense_left,743.0999999642372,img/object-9_120-levels_1D/object9F0Level49F1Level40.png,p,exemplar_display,44,60366,dense_left,p,1,True,50,-20.0,20.0
sub_01,1,dense_left,1017.6999999880791,img/object-9_120-levels_1D/object9F0Level49F1Level40.png,q,exemplar_display,46,62872,dense_left,q,1,True,50,0.0,0.0
sub_01,1,dense_left,816.5,img/object-9_120-levels_1D/object9F0Level43F1Level40.png,q,exemplar_display,48,65379,dense_left,p,1,False,44,-6.0,6.0
sub_01,1,dense_left,907.6000000238419,img/object-9_120-levels_1D/object9F0Level31F1Level40.png,p,exemplar_display,50,67886,dense_left,p,1,True,32,-12.0,12.0
sub_01,1,dense_left,1422.699999988079,img/object-9_120-levels_1D/object9F0Level41F1Level40.png,q,exemplar_display,52,70398,dense_left,p,1,False,42,10.0,10.0
sub_01,1,dense_left,850.6000000238419,img/object-9_120-levels_1D/object9F0Level57F1Level40.png,p,exemplar_display,54,72904,dense_left,p,1,True,58,16.0,16.0
sub_01,1,dense_left,984.6999999880791,img/object-9_120-levels_1D/object9F0Level57F1Level40.png,q,exemplar_display,56,75411,dense_left,q,1,True,58,0.0,0.0
sub_01,1,dense_left,910.9000000357628,img/object-9_120-levels_1D/object9F0Level31F1Level40.png,p,exemplar_display,58,77923,dense_left,p,1,True,32,-26.0,26.0
sub_01,1,dense_left,776.2999999523163,img/object-9_120-levels_1D/object9F0Level61F1Level40.png,p,exemplar_display,60,80430,dense_left,p,1,True,62,30.0,30.0
sub_01,1,dense_left,1027.5,img/object-9_120-levels_1D/object9F0Level67F1Level40.png,p,exemplar_display,62,82942,dense_left,p,1,True,68,6.0,6.0
sub_01,1,dense_left,743.1999999880791,img/object-9_120-levels_1D/object9F0Level41F1Level40.png,p,exemplar_display,64,85452,dense_left,p,1,True,42,-26.0,26.0
sub_01,1,dense_left,765.0,img/object-9_120-levels_1D/object9F0Level41F1Level40.png,q,exemplar_display,66,87960,dense_left,q,1,True,42,0.0,0.0
sub_01,1,dense_left,836.5,img/object-9_120-levels_1D/object9F0Level41F1Level40.png,q,exemplar_display,68,90467,dense_left,q,1,True,42,0.0,0.0
sub_01,1,dense_left,711.0,img/object-9_120-levels_1D/object9F0Level69F1Level40.png,p,exemplar_display,70,92974,dense_left,p,1,True,70,28.0,28.0
sub_01,1,dense_left,615.0,img/object-9_120-levels_1D/object9F0Level43F1Level40.png,p,exemplar_display,72,95480,dense_left,p,1,True,44,-26.0,26.0
sub_01,1,dense_left,1005.0999999642372,img/object-9_120-levels_1D/object9F0Level51F1Level40.png,q,exemplar_display,74,97987,dense_left,p,1,False,52,8.0,8.0
sub_01,1,dense_left,1036.8999999761581,img/object-9_120-levels_1D/object9F0Level51F1Level40.png,q,exemplar_display,76,100499,dense_left,q,1,True,52,0.0,0.0
sub_01,1,dense_left,681.0,img/object-9_120-levels_1D/object9F0Level63F1Level40.png,p,exemplar_display,78,103011,dense_left,p,1,True,64,12.0,12.0
sub_01,1,dense_left,864.5,img/object-9_120-levels_1D/object9F0Level47F1Level40.png,p,exemplar_display,80,105523,dense_left,p,1,True,48,-16.0,16.0
sub_01,1,dense_left,637.4000000357628,img/object-9_120-levels_1D/object9F0Level69F1Level40.png,p,exemplar_display,82,108030,dense_left,p,1,True,70,22.0,22.0
sub_01,1,dense_left,675.8999999761581,img/object-9_120-levels_1D/object9F0Level33F1Level40.png,p,exemplar_display,84,110536,dense_left,p,1,True,34,-36.0,36.0
sub_01,1,dense_left,,img/object-9_120-levels_1D/object9F0Level33F1Level40.png,,exemplar_display,2,7708,dense_left,q,2,,34,0.0,0.0
sub_01,1,dense_left,1133.5,img/object-9_120-levels_1D/object9F0Level51F1Level40.png,p,exemplar_display,4,10217,dense_left,p,2,True,52,18.0,18.0
sub_01,1,dense_left,1082.5999999642372,img/object-9_120-levels_1D/object9F0Level43F1Level40.png,p,exemplar_display,6,12728,dense_left,p,2,True,44,-8.0,8.0
sub_01,1,dense_left,774.5,img/object-9_120-levels_1D/object9F0Level45F1Level40.png,q,exemplar_display,8,15240,dense_left,p,2,False,46,2.0,2.0
sub_01,1,dense_left,844.8999999761581,img/object-9_120-levels_1D/object9F0Level45F1Level40.png,q,exemplar_display,10,17746,dense_left,q,2,True,46,0.0,0.0
sub_01,1,dense_left,802.8000000119209,img/object-9_120-levels_1D/object9F0Level35F1Level40.png,p,exemplar_display,12,20256,dense_left,p,2,True,36,-10.0,10.0
sub_01,1,dense_left,999.5,img/object-9_120-levels_1D/object9F0Level51F1Level40.png,p,exemplar_display,14,22763,dense_left,p,2,True,52,16.0,16.0
sub_01,1,dense_left,735.0,img/object-9_120-levels_1D/object9F0Level67F1Level40.png,p,exemplar_display,16,25268,dense_left,p,2,True,68,16.0,16.0
sub_01,1,dense_left,615.5,img/object-9_120-levels_1D/object9F0Level33F1Level40.png,p,exemplar_display,18,27773,dense_left,p,2,True,34,-34.0,34.0
sub_01,1,dense_left,693.5,img/object-9_120-levels_1D/object9F0Level63F1Level40.png,p,exemplar_display,20,30280,dense_left,p,2,True,64,30.0,30.0
sub_01,1,dense_left,865.8000000119209,img/object-9_120-levels_1D/object9F0Level63F1Level40.png,q,exemplar_display,22,32786,dense_left,q,2,True,64,0.0,0.0
sub_01,1,dense_left,840.1000000238419,img/object-9_120-levels_1D/object9F0Level55F1Level40.png,q,exemplar_display,24,35293,dense_left,p,2,False,56,-8.0,8.0
sub_01,1,dense_left,784.5,img/object-9_120-levels_1D/object9F0Level65F1Level40.png,p,exemplar_display,26,37800,dense_left,p,2,True,66,10.0,10.0
sub_01,1,dense_left,830.0,img/object-9_120-levels_1D/object9F0Level69F1Level40.png,p,exemplar_display,28,40312,dense_left,p,2,True,70,4.0,4.0
sub_01,1,dense_left,736.5,img/object-9_120-levels_1D/object9F0Level55F1Level40.png,p,exemplar_display,30,42819,dense_left,p,2,True,56,-14.0,14.0
sub_01,1,dense_left,777.0,img/object-9_120-levels_1D/object9F0Level69F1Level40.png,p,exemplar_display,32,45331,dense_left,p,2,True,70,14.0,14.0
sub_01,1,dense_left,760.0,img/object-9_120-levels_1D/object9F0Level47F1Level40.png,p,exemplar_display,34,47838,dense_left,p,2,True,48,-22.0,22.0
sub_01,1,dense_left,1148.6000000238419,img/object-9_120-levels_1D/object9F0Level57F1Level40.png,q,exemplar_display,36,50344,dense_left,p,2,False,58,10.0,10.0
sub_01,1,dense_left,1125.7000000476837,img/object-9_120-levels_1D/object9F0Level43F1Level40.png,p,exemplar_display,38,52856,dense_left,p,2,True,44,-14.0,14.0
sub_01,1,dense_left,910.8000000119209,img/object-9_120-levels_1D/object9F0Level47F1Level40.png,q,exemplar_display,40,55363,dense_left,p,2,False,48,4.0,4.0
sub_01,1,dense_left,800.8999999761581,img/object-9_120-levels_1D/object9F0Level63F1Level40.png,p,exemplar_display,42,57869,dense_left,p,2,True,64,16.0,16.0
sub_01,1,dense_left,1104.8999999761581,img/object-9_120-levels_1D/object9F0Level63F1Level40.png,q,exemplar_display,44,60376,dense_left,q,2,True,64,0.0,0.0
sub_01,1,dense_left,836.6000000238419,img/object-9_120-levels_1D/object9F0Level33F1Level40.png,p,exemplar_display,46,62883,dense_left,p,2,True,34,-30.0,30.0
sub_01,1,dense_left,1016.6000000238419,img/object-9_120-levels_1D/object9F0Level49F1Level40.png,p,exemplar_display,48,65389,dense_left,p,2,True,50,16.0,16.0
sub_01,1,dense_left,791.1999999880791,img/object-9_120-levels_1D/object9F0Level53F1Level40.png,q,exemplar_display,50,67896,dense_left,p,2,False,54,4.0,4.0
sub_01,1,dense_left,1169.3999999761581,img/object-9_120-levels_1D/object9F0Level65F1Level40.png,p,exemplar_display,52,70403,dense_left,p,2,True,66,12.0,12.0
sub_01,1,dense_left,742.8999999761581,img/object-9_120-levels_1D/object9F0Level29F1Level40.png,p,exemplar_display,54,72915,dense_left,p,2,True,30,-36.0,36.0
sub_01,1,dense_left,661.6000000238419,img/object-9_120-levels_1D/object9F0Level61F1Level40.png,p,exemplar_display,56,75421,dense_left,p,2,True,62,32.0,32.0
sub_01,1,dense_left,996.9000000357628,img/object-9_120-levels_1D/object9F0Level51F1Level40.png,p,exemplar_display,58,77928,dense_left,p,2,True,52,-10.0,10.0
sub_01,1,dense_left,1216.8999999761581,img/object-9_120-levels_1D/object9F0Level59F1Level40.png,p,exemplar_display,60,80440,dense_left,p,2,True,60,8.0,8.0
sub_01,1,dense_left,844.4000000357628,img/object-9_120-levels_1D/object9F0Level41F1Level40.png,p,exemplar_display,62,82947,dense_left,p,2,True,42,-18.0,18.0
sub_01,1,dense_left,522.3000000119209,img/object-9_120-levels_1D/object9F0Level41F1Level40.png,q,exemplar_display,64,85453,dense_left,q,2,True,42,0.0,0.0
sub_01,1,dense_left,819.0999999642372,img/object-9_120-levels_1D/object9F0Level57F1Level40.png,p,exemplar_display,66,87960,dense_left,p,2,True,58,16.0,16.0
sub_01,1,dense_left,1343.699999988079,img/object-9_120-levels_1D/object9F0Level63F1Level40.png,q,exemplar_display,68,90467,dense_left,p,2,False,64,6.0,6.0
sub_01,1,dense_left,892.5999999642372,img/object-9_120-levels_1D/object9F0Level67F1Level40.png,p,exemplar_display,70,92979,dense_left,p,2,True,68,4.0,4.0
sub_01,1,dense_left,793.8000000119209,img/object-9_120-levels_1D/object9F0Level63F1Level40.png,q,exemplar_display,72,95485,dense_left,p,2,False,64,-4.0,4.0
sub_01,1,dense_left,630.3000000119209,img/object-9_120-levels_1D/object9F0Level35F1Level40.png,p,exemplar_display,74,97992,dense_left,p,2,True,36,-28.0,28.0
sub_01,1,dense_left,816.1999999880791,img/object-9_120-levels_1D/object9F0Level45F1Level40.png,q,exemplar_display,76,100499,dense_left,p,2,False,46,10.0,10.0
sub_01,1,dense_left,728.8999999761581,img/object-9_120-levels_1D/object9F0Level45F1Level40.png,q,exemplar_display,78,103005,dense_left,q,2,True,46,0.0,0.0
sub_01,1,dense_left,720.5,img/object-9_120-levels_1D/object9F0Level61F1Level40.png,p,exemplar_display,80,105512,dense_left,p,2,True,62,16.0,16.0
sub_01,1,dense_left,831.1999999880791,img/object-9_120-levels_1D/object9F0Level31F1Level40.png,p,exemplar_display,82,108018,dense_left,p,2,True,32,-30.0,30.0
sub_01,1,dense_left,541.8000000119209,img/object-9_120-levels_1D/object9F0Level37F1Level40.png,q,exemplar_display,84,110525,dense_left,p,2,False,38,6.0,6.0
sub_01,1,dense_left,,img/object-9_120-levels_1D/object9F0Level43F1Level40.png,,exemplar_display,2,7727,dense_left,p,3,,44,6.0,6.0
sub_01,1,dense_left,747.4000000357628,img/object-9_120-levels_1D/object9F0Level61F1Level40.png,p,exemplar_display,4,10239,dense_left,p,3,True,62,18.0,18.0
sub_01,1,dense_left,751.5,img/object-9_120-levels_1D/object9F0Level29F1Level40.png,p,exemplar_display,6,12744,dense_left,p,3,True,30,-32.0,32.0
sub_01,1,dense_left,627.3000000119209,img/object-9_120-levels_1D/object9F0Level57F1Level40.png,p,exemplar_display,8,15255,dense_left,p,3,True,58,28.0,28.0
sub_01,1,dense_left,835.1999999880791,img/object-9_120-levels_1D/object9F0Level69F1Level40.png,p,exemplar_display,10,17765,dense_left,p,3,True,70,12.0,12.0
sub_01,1,dense_left,703.2000000476837,img/object-9_120-levels_1D/object9F0Level51F1Level40.png,p,exemplar_display,12,20272,dense_left,p,3,True,52,-18.0,18.0
sub_01,1,dense_left,1041.199999988079,img/object-9_120-levels_1D/object9F0Level61F1Level40.png,p,exemplar_display,14,22778,dense_left,p,3,True,62,10.0,10.0
sub_01,1,dense_left,808.9000000357628,img/object-9_120-levels_1D/object9F0Level45F1Level40.png,p,exemplar_display,16,25289,dense_left,p,3,True,46,-16.0,16.0
sub_01,1,dense_left,775.0999999642372,img/object-9_120-levels_1D/object9F0Level57F1Level40.png,p,exemplar_display,18,27796,dense_left,p,3,True,58,12.0,12.0
sub_01,1,dense_left,739.8999999761581,img/object-9_120-levels_1D/object9F0Level31F1Level40.png,p,exemplar_display,20,30304,dense_left,p,3,True,32,-26.0,26.0
sub_01,1,dense_left,626.1999999880791,img/object-9_120-levels_1D/object9F0Level31F1Level40.png,q,exemplar_display,22,32810,dense_left,q,3,True,32,0.0,0.0
sub_01,1,dense_left,738.9000000357628,img/object-9_120-levels_1D/object9F0Level37F1Level40.png,q,exemplar_display,24,35322,dense_left,p,3,False,38,6.0,6.0
sub_01,1,dense_left,831.3000000119209,img/object-9_120-levels_1D/object9F0Level51F1Level40.png,p,exemplar_display,26,37829,dense_left,p,3,True,52,14.0,14.0
sub_01,1,dense_left,881.1000000238419,img/object-9_120-levels_1D/object9F0Level37F1Level40.png,q,exemplar_display,28,40336,dense_left,p,3,False,38,-14.0,14.0
sub_01,1,dense_left,658.0,img/object-9_120-levels_1D/object9F0Level59F1Level40.png,p,exemplar_display,30,42848,dense_left,p,3,True,60,22.0,22.0
sub_01,1,dense_left,707.3000000119209,img/object-9_120-levels_1D/object9F0Level55F1Level40.png,q,exemplar_display,32,45354,dense_left,p,3,False,56,-4.0,4.0
sub_01,1,dense_left,791.7000000476837,img/object-9_120-levels_1D/object9F0Level55F1Level40.png,q,exemplar_display,34,47866,dense_left,q,3,True,56,0.0,0.0
sub_01,1,dense_left,781.3000000119209,img/object-9_120-levels_1D/object9F0Level49F1Level40.png,q,exemplar_display,36,50375,dense_left,p,3,False,50,-6.0,6.0
sub_01,1,dense_left,748.5,img/object-9_120-levels_1D/object9F0Level49F1Level40.png,q,exemplar_display,38,52885,dense_left,q,3,True,50,0.0,0.0
sub_01,1,dense_left,1201.800000011921,img/object-9_120-levels_1D/object9F0Level59F1Level40.png,p,exemplar_display,40,55392,dense_left,p,3,True,60,10.0,10.0
sub_01,1,dense_left,980.5999999642372,img/object-9_120-levels_1D/object9F0Level45F1Level40.png,p,exemplar_display,42,57903,dense_left,p,3,True,46,-14.0,14.0
sub_01,1,dense_left,1109.199999988079,img/object-9_120-levels_1D/object9F0Level55F1Level40.png,p,exemplar_display,44,60410,dense_left,p,3,True,56,10.0,10.0
sub_01,1,dense_left,681.5,img/object-9_120-levels_1D/object9F0Level33F1Level40.png,p,exemplar_display,46,62917,dense_left,p,3,True,34,-22.0,22.0
sub_01,1,dense_left,783.5999999642372,img/object-9_120-levels_1D/object9F0Level33F1Level40.png,q,exemplar_display,48,65423,dense_left,q,3,True,34,0.0,0.0
sub_01,1,dense_left,711.6999999880791,img/object-9_120-levels_1D/object9F0Level31F1Level40.png,q,exemplar_display,50,67930,dense_left,p,3,False,32,-2.0,2.0
sub_01,1,dense_left,669.7000000476837,img/object-9_120-levels_1D/object9F0Level39F1Level40.png,q,exemplar_display,52,70437,dense_left,p,3,False,40,8.0,8.0
sub_01,1,dense_left,672.8000000119209,img/object-9_120-levels_1D/object9F0Level29F1Level40.png,p,exemplar_display,54,72943,dense_left,p,3,True,30,-10.0,10.0
sub_01,1,dense_left,980.8000000119209,img/object-9_120-levels_1D/object9F0Level57F1Level40.png,p,exemplar_display,56,75450,dense_left,p,3,True,58,28.0,28.0
sub_01,1,dense_left,974.3000000119209,img/object-9_120-levels_1D/object9F0Level37F1Level40.png,p,exemplar_display,58,77957,dense_left,p,3,True,38,-20.0,20.0
sub_01,1,dense_left,787.0,img/object-9_120-levels_1D/object9F0Level37F1Level40.png,q,exemplar_display,60,80464,dense_left,q,3,True,38,0.0,0.0
sub_01,1,dense_left,720.0999999642372,img/object-9_120-levels_1D/object9F0Level65F1Level40.png,p,exemplar_display,62,82970,dense_left,p,3,True,66,28.0,28.0
sub_01,1,dense_left,825.4000000357628,img/object-9_120-levels_1D/object9F0Level51F1Level40.png,p,exemplar_display,64,85477,dense_left,p,3,True,52,-14.0,14.0
sub_01,1,dense_left,1019.0999999642372,img/object-9_120-levels_1D/object9F0Level51F1Level40.png,q,exemplar_display,66,87984,dense_left,q,3,True,52,0.0,0.0
sub_01,1,dense_left,1192.800000011921,img/object-9_120-levels_1D/object9F0Level53F1Level40.png,p,exemplar_display,68,90490,dense_left,p,3,True,54,2.0,2.0
sub_01,1,dense_left,970.8999999761581,img/object-9_120-levels_1D/object9F0Level55F1Level40.png,q,exemplar_display,70,92997,dense_left,p,3,False,56,2.0,2.0
sub_01,1,dense_left,698.1999999880791,img/object-9_120-levels_1D/object9F0Level55F1Level40.png,q,exemplar_display,72,95503,dense_left,q,3,True,56,0.0,0.0
sub_01,1,dense_left,705.8999999761581,img/object-9_120-levels_1D/object9F0Level29F1Level40.png,p,exemplar_display,74,98010,dense_left,p,3,True,30,-26.0,26.0
sub_01,1,dense_left,1136.5,img/object-9_120-levels_1D/object9F0Level33F1Level40.png,q,exemplar_display,76,100517,dense_left,p,3,False,34,4.0,4.0
sub_01,1,dense_left,991.8000000119209,img/object-9_120-levels_1D/object9F0Level39F1Level40.png,p,exemplar_display,78,103024,dense_left,p,3,True,40,6.0,6.0
sub_01,1,dense_left,760.6999999880791,img/object-9_120-levels_1D/object9F0Level59F1Level40.png,p,exemplar_display,80,105530,dense_left,p,3,True,60,20.0,20.0
sub_01,1,dense_left,678.4000000357628,img/object-9_120-levels_1D/object9F0Level59F1Level40.png,q,exemplar_display,82,108037,dense_left,q,3,True,60,0.0,0.0
sub_01,1,dense_left,875.6999999880791,img/object-9_120-levels_1D/object9F0Level67F1Level40.png,p,exemplar_display,84,110546,dense_left,p,3,True,68,8.0,8.0
sub_01,1,dense_left,,img/object-9_120-levels_1D/object9F0Level47F1Level40.png,,exemplar_display,2,7703,dense_left,p,4,,48,-20.0,20.0
sub_01,1,dense_left,765.8999999761581,img/object-9_120-levels_1D/object9F0Level53F1Level40.png,p,exemplar_display,4,10211,dense_left,p,4,True,54,6.0,6.0
sub_01,1,dense_left,824.5,img/object-9_120-levels_1D/object9F0Level53F1Level40.png,q,exemplar_display,6,12714,dense_left,q,4,True,54,0.0,0.0
sub_01,1,dense_left,935.6000000238419,img/object-9_120-levels_1D/object9F0Level49F1Level40.png,q,exemplar_display,8,15218,dense_left,p,4,False,50,-4.0,4.0
sub_01,1,dense_left,775.1999999880791,img/object-9_120-levels_1D/object9F0Level55F1Level40.png,p,exemplar_display,10,17729,dense_left,p,4,True,56,6.0,6.0
sub_01,1,dense_left,848.3999999761581,img/object-9_120-levels_1D/object9F0Level53F1Level40.png,q,exemplar_display,12,20239,dense_left,p,4,False,54,-2.0,2.0
sub_01,1,dense_left,952.9000000357628,img/object-9_120-levels_1D/object9F0Level35F1Level40.png,p,exemplar_display,14,22742,dense_left,p,4,True,36,-18.0,18.0
sub_01,1,dense_left,1060.800000011921,img/object-9_120-levels_1D/object9F0Level35F1Level40.png,q,exemplar_display,16,25246,dense_left,q,4,True,36,0.0,0.0
sub_01,1,dense_left,890.8999999761581,img/object-9_120-levels_1D/object9F0Level49F1Level40.png,p,exemplar_display,18,27755,dense_left,p,4,True,50,14.0,14.0
sub_01,1,dense_left,1073.2999999523163,img/object-9_120-levels_1D/object9F0Level53F1Level40.png,q,exemplar_display,20,30263,dense_left,p,4,False,54,4.0,4.0
sub_01,1,dense_left,848.1999999880791,img/object-9_120-levels_1D/object9F0Level39F1Level40.png,p,exemplar_display,22,32770,dense_left,p,4,True,40,-14.0,14.0
sub_01,1,dense_left,1104.7000000476837,img/object-9_120-levels_1D/object9F0Level43F1Level40.png,q,exemplar_display,24,35277,dense_left,p,4,False,44,4.0,4.0
sub_01,1,dense_left,722.6000000238419,img/object-9_120-levels_1D/object9F0Level43F1Level40.png,q,exemplar_display,26,37784,dense_left,q,4,True,44,0.0,0.0
sub_01,1,dense_left,657.8000000119209,img/object-9_120-levels_1D/object9F0Level65F1Level40.png,p,exemplar_display,28,40290,dense_left,p,4,True,66,22.0,22.0
sub_01,1,dense_left,903.0,img/object-9_120-levels_1D/object9F0Level65F1Level40.png,q,exemplar_display,30,42797,dense_left,q,4,True,66,0.0,0.0
sub_01,1,dense_left,689.6000000238419,img/object-9_120-levels_1D/object9F0Level37F1Level40.png,p,exemplar_display,32,45304,dense_left,p,4,True,38,-28.0,28.0
sub_01,1,dense_left,541.0999999642372,img/object-9_120-levels_1D/object9F0Level69F1Level40.png,q,exemplar_display,34,47810,dense_left,p,4,False,70,32.0,32.0
sub_01,1,dense_left,1505.5,img/object-9_120-levels_1D/object9F0Level69F1Level40.png,q,exemplar_display,36,50317,dense_left,q,4,True,70,0.0,0.0
sub_01,1,dense_left,964.6000000238419,img/object-9_120-levels_1D/object9F0Level61F1Level40.png,p,exemplar_display,38,52824,dense_left,p,4,True,62,-8.0,8.0
sub_01,1,dense_left,945.6999999880791,img/object-9_120-levels_1D/object9F0Level61F1Level40.png,q,exemplar_display,40,55330,dense_left,q,4,True,62,0.0,0.0
sub_01,1,dense_left,662.4000000357628,img/object-9_120-levels_1D/object9F0Level49F1Level40.png,p,exemplar_display,42,57837,dense_left,p,4,True,50,-12.0,12.0
sub_01,1,dense_left,1345.199999988079,img/object-9_120-levels_1D/object9F0Level39F1Level40.png,p,exemplar_display,44,60344,dense_left,p,4,True,40,-10.0,10.0
sub_01,1,dense_left,1183.800000011921,img/object-9_120-levels_1D/object9F0Level43F1Level40.png,q,exemplar_display,46,62850,dense_left,p,4,False,44,4.0,4.0
sub_01,1,dense_left,1108.4000000357628,img/object-9_120-levels_1D/object9F0Level43F1Level40.png,p,exemplar_display,48,65362,dense_left,q,4,False,44,0.0,0.0
sub_01,1,dense_left,1053.9000000357628,img/object-9_120-levels_1D/object9F0Level61F1Level40.png,p,exemplar_display,50,67869,dense_left,p,4,True,62,18.0,18.0
sub_01,1,dense_left,731.7000000476837,img/object-9_120-levels_1D/object9F0Level33F1Level40.png,p,exemplar_display,52,70375,dense_left,p,4,True,34,-28.0,28.0
sub_01,1,dense_left,731.5,img/object-9_120-levels_1D/object9F0Level57F1Level40.png,p,exemplar_display,54,72882,dense_left,p,4,True,58,24.0,24.0
sub_01,1,dense_left,691.6000000238419,img/object-9_120-levels_1D/object9F0Level31F1Level40.png,p,exemplar_display,56,75385,dense_left,p,4,True,32,-26.0,26.0
sub_01,1,dense_left,1251.699999988079,img/object-9_120-levels_1D/object9F0Level31F1Level40.png,p,exemplar_display,58,77896,dense_left,q,4,False,32,0.0,0.0
sub_01,1,dense_left,748.5,img/object-9_120-levels_1D/object9F0Level53F1Level40.png,p,exemplar_display,60,80402,dense_left,p,4,True,54,22.0,22.0
sub_01,1,dense_left,1141.4000000357628,img/object-9_120-levels_1D/object9F0Level59F1Level40.png,p,exemplar_display,62,82909,dense_left,p,4,True,60,6.0,6.0
sub_01,1,dense_left,1204.6000000238419,img/object-9_120-levels_1D/object9F0Level63F1Level40.png,q,exemplar_display,64,85412,dense_left,p,4,False,64,4.0,4.0
sub_01,1,dense_left,609.3000000119209,img/object-9_120-levels_1D/object9F0Level39F1Level40.png,p,exemplar_display,66,87922,dense_left,p,4,True,40,-24.0,24.0
sub_01,1,dense_left,1029.3999999761581,img/object-9_120-levels_1D/object9F0Level59F1Level40.png,p,exemplar_display,68,90429,dense_left,p,4,True,60,20.0,20.0
sub_01,1,dense_left,748.3000000119209,img/object-9_120-levels_1D/object9F0Level49F1Level40.png,p,exemplar_display,70,92935,dense_left,p,4,True,50,-10.0,10.0
sub_01,1,dense_left,852.9000000357628,img/object-9_120-levels_1D/object9F0Level47F1Level40.png,q,exemplar_display,72,95447,dense_left,p,4,False,48,-2.0,2.0
sub_01,1,dense_left,647.1999999880791,img/object-9_120-levels_1D/object9F0Level47F1Level40.png,q,exemplar_display,74,97954,dense_left,q,4,True,48,0.0,0.0
sub_01,1,dense_left,845.3999999761581,img/object-9_120-levels_1D/object9F0Level41F1Level40.png,p,exemplar_display,76,100461,dense_left,p,4,True,42,-6.0,6.0
sub_01,1,dense_left,832.1999999880791,img/object-9_120-levels_1D/object9F0Level55F1Level40.png,p,exemplar_display,78,102968,dense_left,p,4,True,56,14.0,14.0
sub_01,1,dense_left,1061.800000011921,img/object-9_120-levels_1D/object9F0Level49F1Level40.png,q,exemplar_display,80,105474,dense_left,p,4,False,50,-6.0,6.0
sub_01,1,dense_left,675.6999999880791,img/object-9_120-levels_1D/object9F0Level29F1Level40.png,p,exemplar_display,82,107986,dense_left,p,4,True,30,-20.0,20.0
sub_01,1,dense_left,665.1999999880791,img/object-9_120-levels_1D/object9F0Level63F1Level40.png,p,exemplar_display,84,110493,dense_left,p,4,True,64,34.0,34.0
sub_01,1,dense_left,,img/object-9_120-levels_1D/object9F0Level35F1Level40.png,,exemplar_display,2,7831,dense_left,p,5,,36,-28.0,28.0
sub_01,1,dense_left,1084.1000000238419,img/object-9_120-levels_1D/object9F0Level29F1Level40.png,p,exemplar_display,4,10341,dense_left,p,5,True,30,-6.0,6.0
sub_01,1,dense_left,672.6000000238419,img/object-9_120-levels_1D/object9F0Level59F1Level40.png,p,exemplar_display,6,12850,dense_left,p,5,True,60,30.0,30.0
sub_01,1,dense_left,655.3000000119209,img/object-9_120-levels_1D/object9F0Level39F1Level40.png,p,exemplar_display,8,15358,dense_left,p,5,True,40,-20.0,20.0
sub_01,1,dense_left,754.8000000119209,img/object-9_120-levels_1D/object9F0Level39F1Level40.png,q,exemplar_display,10,17868,dense_left,q,5,True,40,0.0,0.0
sub_01,1,dense_left,604.1999999880791,img/object-9_120-levels_1D/object9F0Level53F1Level40.png,p,exemplar_display,12,20380,dense_left,p,5,True,54,14.0,14.0
sub_01,1,dense_left,866.1999999880791,img/object-9_120-levels_1D/object9F0Level53F1Level40.png,q,exemplar_display,14,22889,dense_left,q,5,True,54,0.0,0.0
sub_01,1,dense_left,624.0999999642372,img/object-9_120-levels_1D/object9F0Level65F1Level40.png,p,exemplar_display,16,25394,dense_left,p,5,True,66,12.0,12.0
sub_01,1,dense_left,786.1000000238419,img/object-9_120-levels_1D/object9F0Level47F1Level40.png,p,exemplar_display,18,27903,dense_left,p,5,True,48,-18.0,18.0
sub_01,1,dense_left,781.0,img/object-9_120-levels_1D/object9F0Level47F1Level40.png,q,exemplar_display,20,30413,dense_left,q,5,True,48,0.0,0.0
sub_01,1,dense_left,661.8000000119209,img/object-9_120-levels_1D/object9F0Level47F1Level40.png,q,exemplar_display,22,32919,dense_left,q,5,True,48,0.0,0.0
sub_01,1,dense_left,665.1999999880791,img/object-9_120-levels_1D/object9F0Level67F1Level40.png,p,exemplar_display,24,35426,dense_left,p,5,True,68,20.0,20.0
sub_01,1,dense_left,957.0999999642372,img/object-9_120-levels_1D/object9F0Level53F1Level40.png,p,exemplar_display,26,37933,dense_left,p,5,True,54,-14.0,14.0
sub_01,1,dense_left,811.0,img/object-9_120-levels_1D/object9F0Level67F1Level40.png,p,exemplar_display,28,40440,dense_left,p,5,True,68,14.0,14.0
sub_01,1,dense_left,738.6999999880791,img/object-9_120-levels_1D/object9F0Level41F1Level40.png,p,exemplar_display,30,42945,dense_left,p,5,True,42,-26.0,26.0
sub_01,1,dense_left,635.1000000238419,img/object-9_120-levels_1D/object9F0Level63F1Level40.png,p,exemplar_display,32,45453,dense_left,p,5,True,64,22.0,22.0
sub_01,1,dense_left,901.1999999880791,img/object-9_120-levels_1D/object9F0Level65F1Level40.png,q,exemplar_display,34,47965,dense_left,p,5,False,66,2.0,2.0
sub_01,1,dense_left,947.8000000119209,img/object-9_120-levels_1D/object9F0Level61F1Level40.png,q,exemplar_display,36,50472,dense_left,p,5,False,62,-4.0,4.0
sub_01,1,dense_left,705.3000000119209,img/object-9_120-levels_1D/object9F0Level37F1Level40.png,p,exemplar_display,38,52978,dense_left,p,5,True,38,-24.0,24.0
sub_01,1,dense_left,884.0,img/object-9_120-levels_1D/object9F0Level37F1Level40.png,q,exemplar_display,40,55485,dense_left,q,5,True,38,0.0,0.0
sub_01,1,dense_left,761.7000000476837,img/object-9_120-levels_1D/object9F0Level61F1Level40.png,p,exemplar_display,42,57991,dense_left,p,5,True,62,24.0,24.0
sub_01,1,dense_left,1310.5,img/object-9_120-levels_1D/object9F0Level67F1Level40.png,p,exemplar_display,44,60498,dense_left,p,5,True,68,6.0,6.0
sub_01,1,dense_left,1043.0,img/object-9_120-levels_1D/object9F0Level29F1Level40.png,p,exemplar_display,46,63005,dense_left,p,5,True,30,-38.0,38.0
sub_01,1,dense_left,770.8000000119209,img/object-9_120-levels_1D/object9F0Level29F1Level40.png,q,exemplar_display,48,65511,dense_left,q,5,True,30,0.0,0.0
sub_01,1,dense_left,899.5,img/object-9_120-levels_1D/object9F0Level67F1Level40.png,p,exemplar_display,50,68018,dense_left,p,5,True,68,38.0,38.0
sub_01,1,dense_left,825.3000000119209,img/object-9_120-levels_1D/object9F0Level37F1Level40.png,p,exemplar_display,52,70525,dense_left,p,5,True,38,-30.0,30.0
sub_01,1,dense_left,910.6000000238419,img/object-9_120-levels_1D/object9F0Level45F1Level40.png,q,exemplar_display,54,73036,dense_left,p,5,False,46,8.0,8.0
sub_01,1,dense_left,1593.3999999761581,img/object-9_120-levels_1D/object9F0Level55F1Level40.png,p,exemplar_display,56,75544,dense_left,p,5,True,56,10.0,10.0
sub_01,1,dense_left,1227.800000011921,img/object-9_120-levels_1D/object9F0Level31F1Level40.png,p,exemplar_display,58,78050,dense_left,p,5,True,32,-24.0,24.0
sub_01,1,dense_left,718.5,img/object-9_120-levels_1D/object9F0Level35F1Level40.png,q,exemplar_display,60,80557,dense_left,p,5,False,36,4.0,4.0
sub_01,1,dense_left,1068.5,img/object-9_120-levels_1D/object9F0Level43F1Level40.png,q,exemplar_display,62,83069,dense_left,p,5,False,44,8.0,8.0
sub_01,1,dense_left,692.6999999880791,img/object-9_120-levels_1D/object9F0Level41F1Level40.png,q,exemplar_display,64,85576,dense_left,p,5,False,42,-2.0,2.0
sub_01,1,dense_left,730.7999999523163,img/object-9_120-levels_1D/object9F0Level39F1Level40.png,q,exemplar_display,66,88082,dense_left,p,5,False,40,-2.0,2.0
sub_01,1,dense_left,620.6999999880791,img/object-9_120-levels_1D/object9F0Level69F1Level40.png,p,exemplar_display,68,90589,dense_left,p,5,True,70,30.0,30.0
sub_01,1,dense_left,957.6000000238419,img/object-9_120-levels_1D/object9F0Level39F1Level40.png,p,exemplar_display,70,93095,dense_left,p,5,True,40,-30.0,30.0
sub_01,1,dense_left,796.6999999880791,img/object-9_120-levels_1D/object9F0Level39F1Level40.png,q,exemplar_display,72,95602,dense_left,q,5,True,40,0.0,0.0
sub_01,1,dense_left,1227.3999999761581,img/object-9_120-levels_1D/object9F0Level47F1Level40.png,q,exemplar_display,74,98109,dense_left,p,5,False,48,8.0,8.0
sub_01,1,dense_left,691.1999999880791,img/object-9_120-levels_1D/object9F0Level35F1Level40.png,q,exemplar_display,76,100621,dense_left,p,5,False,36,-12.0,12.0
sub_01,1,dense_left,657.3999999761581,img/object-9_120-levels_1D/object9F0Level29F1Level40.png,q,exemplar_display,78,103133,dense_left,p,5,False,30,-6.0,6.0
sub_01,1,dense_left,669.3000000119209,img/object-9_120-levels_1D/object9F0Level29F1Level40.png,q,exemplar_display,80,105640,dense_left,q,5,True,30,0.0,0.0
sub_01,1,dense_left,594.6000000238419,img/object-9_120-levels_1D/object9F0Level67F1Level40.png,p,exemplar_display,82,108146,dense_left,p,5,True,68,38.0,38.0
sub_01,1,dense_left,1162.800000011921,img/object-9_120-levels_1D/object9F0Level67F1Level40.png,q,exemplar_display,84,110653,dense_left,q,5,True,68,0.0,0.0
sub_02,1,dense_right,,img/object-9_120-levels_1D/object9F0Level113F1Level40.png,,exemplar_display,2,17894,dense_right,,1,,114,,
sub_02,1,dense_right,1477.6000000089407,img/object-9_120-levels_1D/object9F0Level107F1Level40.png,q,exemplar_display,4,20420,dense_right,p,1,False,108,-6.0,6.0
sub_02,1,dense_right,1771.4000000059605,img/object-9_120-levels_1D/object9F0Level111F1Level40.png,q,exemplar_display,6,22954,dense_right,p,1,False,112,4.0,4.0
sub_02,1,dense_right,741.0,img/object-9_120-levels_1D/object9F0Level111F1Level40.png,q,exemplar_display,8,25495,dense_right,q,1,True,112,0.0,0.0
sub_02,1,dense_right,1199.3999999910593,img/object-9_120-levels_1D/object9F0Level117F1Level40.png,q,exemplar_display,10,28035,dense_right,p,1,False,118,6.0,6.0
sub_02,1,dense_right,823.7999999970198,img/object-9_120-levels_1D/object9F0Level105F1Level40.png,q,exemplar_display,12,30559,dense_right,p,1,False,106,-12.0,12.0
sub_02,1,dense_right,1344.8999999910593,img/object-9_120-levels_1D/object9F0Level103F1Level40.png,q,exemplar_display,14,33065,dense_right,p,1,False,104,-2.0,2.0
sub_02,1,dense_right,1362.0,img/object-9_120-levels_1D/object9F0Level97F1Level40.png,q,exemplar_display,16,35570,dense_right,p,1,False,98,-6.0,6.0
sub_02,1,dense_right,1084.2000000029802,img/object-9_120-levels_1D/object9F0Level117F1Level40.png,q,exemplar_display,18,38076,dense_right,p,1,False,118,20.0,20.0
sub_02,1,dense_right,780.7999999970198,img/object-9_120-levels_1D/object9F0Level105F1Level40.png,q,exemplar_display,20,40582,dense_right,p,1,False,106,-12.0,12.0
sub_02,1,dense_right,853.0,img/object-9_120-levels_1D/object9F0Level77F1Level40.png,p,exemplar_display,22,43105,dense_right,p,1,True,78,-28.0,28.0
sub_02,1,dense_right,1269.5,img/object-9_120-levels_1D/object9F0Level95F1Level40.png,p,exemplar_display,24,45611,dense_right,p,1,True,96,18.0,18.0
sub_02,1,dense_right,1160.3999999910593,img/object-9_120-levels_1D/object9F0Level83F1Level40.png,p,exemplar_display,26,48132,dense_right,p,1,True,84,-12.0,12.0
sub_02,1,dense_right,1223.5,img/object-9_120-levels_1D/object9F0Level83F1Level40.png,q,exemplar_display,28,50639,dense_right,q,1,True,84,0.0,0.0
sub_02,1,dense_right,1242.7000000029802,img/object-9_120-levels_1D/object9F0Level83F1Level40.png,q,exemplar_display,30,53145,dense_right,q,1,True,84,0.0,0.0
sub_02,1,dense_right,1377.8999999910593,img/object-9_120-levels_1D/object9F0Level91F1Level40.png,q,exemplar_display,32,55650,dense_right,p,1,False,92,8.0,8.0
sub_02,1,dense_right,733.5,img/object-9_120-levels_1D/object9F0Level95F1Level40.png,q,exemplar_display,34,58156,dense_right,p,1,False,96,4.0,4.0
sub_02,1,dense_right,1815.4000000059605,img/object-9_120-levels_1D/object9F0Level95F1Level40.png,q,exemplar_display,36,60662,dense_right,q,1,True,96,0.0,0.0
sub_02,1,dense_right,1701.0999999940395,img/object-9_120-levels_1D/object9F0Level111F1Level40.png,p,exemplar_display,38,63197,dense_right,p,1,True,112,16.0,16.0
sub_02,1,dense_right,1062.7000000029802,img/object-9_120-levels_1D/object9F0Level91F1Level40.png,q,exemplar_display,40,65709,dense_right,p,1,False,92,-20.0,20.0
sub_02,1,dense_right,1077.2000000029802,img/object-9_120-levels_1D/object9F0Level79F1Level40.png,q,exemplar_display,42,68224,dense_right,p,1,False,80,-12.0,12.0
sub_02,1,dense_right,824.5,img/object-9_120-levels_1D/object9F0Level79F1Level40.png,q,exemplar_display,44,70731,dense_right,q,1,True,80,0.0,0.0
sub_02,1,dense_right,749.0999999940395,img/object-9_120-levels_1D/object9F0Level87F1Level40.png,p,exemplar_display,46,73237,dense_right,p,1,True,88,8.0,8.0
sub_02,1,dense_right,948.7000000029802,img/object-9_120-levels_1D/object9F0Level87F1Level40.png,q,exemplar_display,48,75742,dense_right,q,1,True,88,0.0,0.0
sub_02,1,dense_right,1255.8999999910593,img/object-9_120-levels_1D/object9F0Level111F1Level40.png,p,exemplar_display,50,78247,dense_right,p,1,True,112,24.0,24.0
sub_02,1,dense_right,893.5,img/object-9_120-levels_1D/object9F0Level113F1Level40.png,q,exemplar_display,52,80753,dense_right,p,1,False,114,2.0,2.0
sub_02,1,dense_right,1038.2000000029802,img/object-9_120-levels_1D/object9F0Level97F1Level40.png,p,exemplar_display,54,83265,dense_right,p,1,True,98,-16.0,16.0
sub_02,1,dense_right,1054.2999999970198,img/object-9_120-levels_1D/object9F0Level85F1Level40.png,q,exemplar_display,56,85772,dense_right,p,1,False,86,-12.0,12.0
sub_02,1,dense_right,641.3999999910593,img/object-9_120-levels_1D/object9F0Level87F1Level40.png,q,exemplar_display,58,88289,dense_right,p,1,False,88,2.0,2.0
sub_02,1,dense_right,1273.4000000059605,img/object-9_120-levels_1D/object9F0Level99F1Level40.png,q,exemplar_display,60,90796,dense_right,p,1,False,100,12.0,12.0
sub_02,1,dense_right,979.7000000029802,img/object-9_120-levels_1D/object9F0Level87F1Level40.png,q,exemplar_display,62,93302,dense_right,p,1,False,88,-12.0,12.0
sub_02,1,dense_right,2459.0,img/object-9_120-levels_1D/object9F0Level117F1Level40.png,p,exemplar_display,64,96267,dense_right,p,1,True,118,30.0,30.0
sub_02,1,dense_right,1052.5,img/object-9_120-levels_1D/object9F0Level117F1Level40.png,q,exemplar_display,66,98774,dense_right,q,1,True,118,0.0,0.0
sub_02,1,dense_right,1216.4000000059605,img/object-9_120-levels_1D/object9F0Level83F1Level40.png,p,exemplar_display,68,101279,dense_right,p,1,True,84,-34.0,34.0
sub_02,1,dense_right,906.2999999970198,img/object-9_120-levels_1D/object9F0Level81F1Level40.png,p,exemplar_display,70,103800,dense_right,p,1,True,82,-2.0,2.0
sub_02,1,dense_right,1134.2000000029802,img/object-9_120-levels_1D/object9F0Level79F1Level40.png,p,exemplar_display,72,106319,dense_right,p,1,True,80,-2.0,2.0
sub_02,1,dense_right,1221.7999999970198,img/object-9_120-levels_1D/object9F0Level101F1Level40.png,p,exemplar_display,74,108834,dense_right,p,1,True,102,22.0,22.0
sub_02,1,dense_right,1847.1000000089407,img/object-9_120-levels_1D/object9F0Level101F1Level40.png,q,exemplar_display,76,111339,dense_right,q,1,True,102,0.0,0.0
sub_02,1,dense_right,919.5,img/object-9_120-levels_1D/object9F0Level113F1Level40.png,q,exemplar_display,78,113860,dense_right,p,1,False,114,12.0,12.0
sub_02,1,dense_right,2274.0,img/object-9_120-levels_1D/object9F0Level89F1Level40.png,p,exemplar_display,80,116638,dense_right,p,1,True,90,-24.0,24.0
sub_02,1,dense_right,1192.2000000029802,img/object-9_120-levels_1D/object9F0Level101F1Level40.png,q,exemplar_display,82,119145,dense_right,p,1,False,102,12.0,12.0
sub_02,1,dense_right,2322.5,img/object-9_120-levels_1D/object9F0Level95F1Level40.png,p,exemplar_display,84,121975,dense_right,p,1,True,96,-6.0,6.0
sub_02,1,dense_right,,img/object-9_120-levels_1D/object9F0Level115F1Level40.png,,exemplar_display,2,22928,dense_right,p,2,,116,20.0,20.0
sub_02,1,dense_right,809.0,img/object-9_120-levels_1D/object9F0Level87F1Level40.png,p,exemplar_display,4,25447,dense_right,p,2,True,88,-28.0,28.0
sub_02,1,dense_right,755.6000000089407,img/object-9_120-levels_1D/object9F0Level83F1Level40.png,q,exemplar_display,6,27987,dense_right,p,2,False,84,-4.0,4.0
sub_02,1,dense_right,1543.0999999940395,img/object-9_120-levels_1D/object9F0Level95F1Level40.png,p,exemplar_display,8,30519,dense_right,p,2,True,96,12.0,12.0
sub_02,1,dense_right,1412.2000000029802,img/object-9_120-levels_1D/object9F0Level117F1Level40.png,p,exemplar_display,10,33026,dense_right,p,2,True,118,22.0,22.0
sub_02,1,dense_right,1117.7999999970198,img/object-9_120-levels_1D/object9F0Level117F1Level40.png,p,exemplar_display,12,35533,dense_right,q,2,False,118,0.0,0.0
sub_02,1,dense_right,1438.7999999970198,img/object-9_120-levels_1D/object9F0Level95F1Level40.png,q,exemplar_display,14,38039,dense_right,p,2,False,96,-22.0,22.0
sub_02,1,dense_right,1543.3999999910593,img/object-9_120-levels_1D/object9F0Level89F1Level40.png,q,exemplar_display,16,40545,dense_right,p,2,False,90,-6.0,6.0
sub_02,1,dense_right,1110.7999999970198,img/object-9_120-levels_1D/object9F0Level89F1Level40.png,q,exemplar_display,18,43051,dense_right,q,2,True,90,0.0,0.0
sub_02,1,dense_right,1638.699999988079,img/object-9_120-levels_1D/object9F0Level117F1Level40.png,p,exemplar_display,20,45559,dense_right,p,2,True,118,28.0,28.0
sub_02,1,dense_right,743.9000000059605,img/object-9_120-levels_1D/object9F0Level79F1Level40.png,q,exemplar_display,22,48065,dense_right,p,2,False,80,-38.0,38.0
sub_02,1,dense_right,,img/object-9_120-levels_1D/object9F0Level99F1Level40.png,,exemplar_display,24,51588,dense_right,p,2,False,100,20.0,20.0
sub_02,1,dense_right,1363.9000000059605,img/object-9_120-levels_1D/object9F0Level93F1Level40.png,p,exemplar_display,26,54096,dense_right,p,2,True,94,-6.0,6.0
sub_02,1,dense_right,1913.300000011921,img/object-9_120-levels_1D/object9F0Level107F1Level40.png,q,exemplar_display,28,56603,dense_right,p,2,False,108,14.0,14.0
sub_02,1,dense_right,772.5,img/object-9_120-levels_1D/object9F0Level89F1Level40.png,p,exemplar_display,30,59108,dense_right,p,2,True,90,-18.0,18.0
sub_02,1,dense_right,1186.0999999940395,img/object-9_120-levels_1D/object9F0Level79F1Level40.png,q,exemplar_display,32,61613,dense_right,p,2,False,80,-10.0,10.0
sub_02,1,dense_right,678.5999999940395,img/object-9_120-levels_1D/object9F0Level109F1Level40.png,p,exemplar_display,34,64120,dense_right,p,2,True,110,30.0,30.0
sub_02,1,dense_right,1340.7000000029802,img/object-9_120-levels_1D/object9F0Level95F1Level40.png,q,exemplar_display,36,66627,dense_right,p,2,False,96,-14.0,14.0
sub_02,1,dense_right,578.6000000089407,img/object-9_120-levels_1D/object9F0Level113F1Level40.png,q,exemplar_display,38,69132,dense_right,p,2,False,114,18.0,18.0
sub_02,1,dense_right,1126.9000000059605,img/object-9_120-levels_1D/object9F0Level101F1Level40.png,q,exemplar_display,40,71654,dense_right,p,2,False,102,-12.0,12.0
sub_02,1,dense_right,898.5,img/object-9_120-levels_1D/object9F0Level77F1Level40.png,p,exemplar_display,42,74160,dense_right,p,2,True,78,-24.0,24.0
sub_02,1,dense_right,1477.6000000089407,img/object-9_120-levels_1D/object9F0Level79F1Level40.png,q,exemplar_display,44,76666,dense_right,p,2,False,80,2.0,2.0
sub_02,1,dense_right,1601.2000000029802,img/object-9_120-levels_1D/object9F0Level79F1Level40.png,q,exemplar_display,46,79172,dense_right,q,2,True,80,0.0,0.0
sub_02,1,dense_right,771.8000000119209,img/object-9_120-levels_1D/object9F0Level103F1Level40.png,p,exemplar_display,48,81678,dense_right,p,2,True,104,24.0,24.0
sub_02,1,dense_right,967.5999999940395,img/object-9_120-levels_1D/object9F0Level77F1Level40.png,p,exemplar_display,50,84185,dense_right,p,2,True,78,-26.0,26.0
sub_02,1,dense_right,1419.2999999970198,img/object-9_120-levels_1D/object9F0Level87F1Level40.png,p,exemplar_display,52,86691,dense_right,p,2,True,88,10.0,10.0
sub_02,1,dense_right,1104.2000000029802,img/object-9_120-levels_1D/object9F0Level103F1Level40.png,p,exemplar_display,54,89214,dense_right,p,2,True,104,16.0,16.0
sub_02,1,dense_right,1001.7000000029802,img/object-9_120-levels_1D/object9F0Level93F1Level40.png,q,exemplar_display,56,91720,dense_right,p,2,False,94,-10.0,10.0
sub_02,1,dense_right,584.9000000059605,img/object-9_120-levels_1D/object9F0Level115F1Level40.png,q,exemplar_display,58,94227,dense_right,p,2,False,116,22.0,22.0
sub_02,1,dense_right,687.2999999970198,img/object-9_120-levels_1D/object9F0Level101F1Level40.png,q,exemplar_display,60,96733,dense_right,p,2,False,102,-14.0,14.0
sub_02,1,dense_right,678.5,img/object-9_120-levels_1D/object9F0Level77F1Level40.png,p,exemplar_display,62,99238,dense_right,p,2,True,78,-24.0,24.0
sub_02,1,dense_right,1003.7999999970198,img/object-9_120-levels_1D/object9F0Level105F1Level40.png,p,exemplar_display,64,101744,dense_right,p,2,True,106,28.0,28.0
sub_02,1,dense_right,854.5999999940395,img/object-9_120-levels_1D/object9F0Level109F1Level40.png,q,exemplar_display,66,104250,dense_right,p,2,False,110,4.0,4.0
sub_02,1,dense_right,1857.5999999940395,img/object-9_120-levels_1D/object9F0Level109F1Level40.png,q,exemplar_display,68,106755,dense_right,q,2,True,110,0.0,0.0
sub_02,1,dense_right,731.7999999970198,img/object-9_120-levels_1D/object9F0Level105F1Level40.png,q,exemplar_display,70,109276,dense_right,p,2,False,106,-4.0,4.0
sub_02,1,dense_right,804.4000000059605,img/object-9_120-levels_1D/object9F0Level89F1Level40.png,p,exemplar_display,72,111783,dense_right,p,2,True,90,-16.0,16.0
sub_02,1,dense_right,953.5999999940395,img/object-9_120-levels_1D/object9F0Level115F1Level40.png,p,exemplar_display,74,114289,dense_right,p,2,True,116,26.0,26.0
sub_02,1,dense_right,1677.1000000089407,img/object-9_120-levels_1D/object9F0Level91F1Level40.png,p,exemplar_display,76,116794,dense_right,p,2,True,92,-24.0,24.0
sub_02,1,dense_right,841.0999999940395,img/object-9_120-levels_1D/object9F0Level91F1Level40.png,q,exemplar_display,78,119300,dense_right,q,2,True,92,0.0,0.0
sub_02,1,dense_right,822.9000000059605,img/object-9_120-levels_1D/object9F0Level95F1Level40.png,q,exemplar_display,80,121807,dense_right,p,2,False,96,4.0,4.0
sub_02,1,dense_right,1274.8999999910593,img/object-9_120-levels_1D/object9F0Level87F1Level40.png,q,exemplar_display,82,124313,dense_right,p,2,False,88,-8.0,8.0
sub_02,1,dense_right,1716.5,img/object-9_120-levels_1D/object9F0Level103F1Level40.png,q,exemplar_display,84,126834,dense_right,p,2,False,104,16.0,16.0
sub_02,1,dense_right,,img/object-9_120-levels_1D/object9F0Level103F1Level40.png,,exemplar_display,2,26426,dense_right,q,3,,104,0.0,0.0
sub_02,1,dense_right,828.8000000119209,img/object-9_120-levels_1D/object9F0Level117F1Level40.png,q,exemplar_display,4,28956,dense_right,p,3,False,118,14.0,14.0
sub_02,1,dense_right,1144.0999999940395,img/object-9_120-levels_1D/object9F0Level91F1Level40.png,q,exemplar_display,6,31467,dense_right,p,3,False,92,-26.0,26.0
sub_02,1,dense_right,1587.1000000089407,img/object-9_120-levels_1D/object9F0Level83F1Level40.png,q,exemplar_display,8,33989,dense_right,p,3,False,84,-8.0,8.0
sub_02,1,dense_right,1891.5,img/object-9_120-levels_1D/object9F0Level97F1Level40.png,p,exemplar_display,10,36502,dense_right,p,3,True,98,14.0,14.0
sub_02,1,dense_right,842.0,img/object-9_120-levels_1D/object9F0Level115F1Level40.png,q,exemplar_display,12,39009,dense_right,p,3,False,116,18.0,18.0
sub_02,1,dense_right,918.4000000059605,img/object-9_120-levels_1D/object9F0Level77F1Level40.png,p,exemplar_display,14,41515,dense_right,p,3,True,78,-38.0,38.0
sub_02,1,dense_right,1360.4000000059605,img/object-9_120-levels_1D/object9F0Level99F1Level40.png,p,exemplar_display,16,44022,dense_right,p,3,True,100,22.0,22.0
sub_02,1,dense_right,1014.7999999970198,img/object-9_120-levels_1D/object9F0Level107F1Level40.png,q,exemplar_display,18,46536,dense_right,p,3,False,108,8.0,8.0
sub_02,1,dense_right,805.9000000059605,img/object-9_120-levels_1D/object9F0Level107F1Level40.png,q,exemplar_display,20,49046,dense_right,q,3,True,108,0.0,0.0
sub_02,1,dense_right,830.2999999970198,img/object-9_120-levels_1D/object9F0Level115F1Level40.png,q,exemplar_display,22,51553,dense_right,p,3,False,116,8.0,8.0
sub_02,1,dense_right,733.9000000059605,img/object-9_120-levels_1D/object9F0Level115F1Level40.png,q,exemplar_display,24,54061,dense_right,q,3,True,116,0.0,0.0
sub_02,1,dense_right,762.5,img/object-9_120-levels_1D/object9F0Level85F1Level40.png,p,exemplar_display,26,56566,dense_right,p,3,True,86,-30.0,30.0
sub_02,1,dense_right,1782.5,img/object-9_120-levels_1D/object9F0Level107F1Level40.png,p,exemplar_display,28,59080,dense_right,p,3,True,108,22.0,22.0
sub_02,1,dense_right,1692.2000000029802,img/object-9_120-levels_1D/object9F0Level109F1Level40.png,q,exemplar_display,30,61587,dense_right,p,3,False,110,2.0,2.0
sub_02,1,dense_right,1549.5999999940395,img/object-9_120-levels_1D/object9F0Level79F1Level40.png,p,exemplar_display,32,64093,dense_right,p,3,True,80,-30.0,30.0
sub_02,1,dense_right,1615.8999999910593,img/object-9_120-levels_1D/object9F0Level81F1Level40.png,q,exemplar_display,34,66600,dense_right,p,3,False,82,2.0,2.0
sub_02,1,dense_right,1066.2000000029802,img/object-9_120-levels_1D/object9F0Level111F1Level40.png,p,exemplar_display,36,69116,dense_right,p,3,True,112,30.0,30.0
sub_02,1,dense_right,922.5,img/object-9_120-levels_1D/object9F0Level81F1Level40.png,p,exemplar_display,38,71631,dense_right,p,3,True,82,-30.0,30.0
sub_02,1,dense_right,1674.5999999940395,img/object-9_120-levels_1D/object9F0Level105F1Level40.png,p,exemplar_display,40,74152,dense_right,p,3,True,106,24.0,24.0
sub_02,1,dense_right,858.5,img/object-9_120-levels_1D/object9F0Level105F1Level40.png,q,exemplar_display,42,76657,dense_right,q,3,True,106,0.0,0.0
sub_02,1,dense_right,708.2000000029802,img/object-9_120-levels_1D/object9F0Level115F1Level40.png,q,exemplar_display,44,79164,dense_right,p,3,False,116,10.0,10.0
sub_02,1,dense_right,2121.5999999940395,img/object-9_120-levels_1D/object9F0Level99F1Level40.png,p,exemplar_display,46,81792,dense_right,p,3,True,100,-16.0,16.0
sub_02,1,dense_right,1185.0,img/object-9_120-levels_1D/object9F0Level99F1Level40.png,q,exemplar_display,48,84301,dense_right,q,3,True,100,0.0,0.0
sub_02,1,dense_right,1103.0,img/object-9_120-levels_1D/object9F0Level107F1Level40.png,q,exemplar_display,50,86806,dense_right,p,3,False,108,8.0,8.0
sub_02,1,dense_right,1044.0,img/object-9_120-levels_1D/object9F0Level97F1Level40.png,q,exemplar_display,52,89329,dense_right,p,3,False,98,-10.0,10.0
sub_02,1,dense_right,726.7000000029802,img/object-9_120-levels_1D/object9F0Level109F1Level40.png,q,exemplar_display,54,91847,dense_right,p,3,False,110,12.0,12.0
sub_02,1,dense_right,1011.3999999910593,img/object-9_120-levels_1D/object9F0Level109F1Level40.png,p,exemplar_display,56,94356,dense_right,q,3,False,110,0.0,0.0
sub_02,1,dense_right,1048.7000000029802,img/object-9_120-levels_1D/object9F0Level89F1Level40.png,q,exemplar_display,58,96862,dense_right,p,3,False,90,-20.0,20.0
sub_02,1,dense_right,687.9000000059605,img/object-9_120-levels_1D/object9F0Level103F1Level40.png,q,exemplar_display,60,99384,dense_right,p,3,False,104,14.0,14.0
sub_02,1,dense_right,707.0,img/object-9_120-levels_1D/object9F0Level99F1Level40.png,q,exemplar_display,62,101889,dense_right,p,3,False,100,-4.0,4.0
sub_02,1,dense_right,873.2999999970198,img/object-9_120-levels_1D/object9F0Level99F1Level40.png,q,exemplar_display,64,104395,dense_right,q,3,True,100,0.0,0.0
sub_02,1,dense_right,615.2999999970198,img/object-9_120-levels_1D/object9F0Level117F1Level40.png,q,exemplar_display,66,106900,dense_right,p,3,False,118,18.0,18.0
sub_02,1,dense_right,883.1000000089407,img/object-9_120-levels_1D/object9F0Level113F1Level40.png,q,exemplar_display,68,109423,dense_right,p,3,False,114,-4.0,4.0
sub_02,1,dense_right,631.5,img/object-9_120-levels_1D/object9F0Level93F1Level40.png,q,exemplar_display,70,111938,dense_right,p,3,False,94,-20.0,20.0
sub_02,1,dense_right,613.0,img/object-9_120-levels_1D/object9F0Level97F1Level40.png,q,exemplar_display,72,114443,dense_right,p,3,False,98,4.0,4.0
sub_02,1,dense_right,1113.0,img/object-9_120-levels_1D/object9F0Level97F1Level40.png,q,exemplar_display,74,116950,dense_right,q,3,True,98,0.0,0.0
sub_02,1,dense_right,605.4000000059605,img/object-9_120-levels_1D/object9F0Level93F1Level40.png,q,exemplar_display,76,119456,dense_right,p,3,False,94,-4.0,4.0
sub_02,1,dense_right,815.7999999970198,img/object-9_120-levels_1D/object9F0Level101F1Level40.png,q,exemplar_display,78,121962,dense_right,p,3,False,102,8.0,8.0
sub_02,1,dense_right,774.8999999910593,img/object-9_120-levels_1D/object9F0Level111F1Level40.png,q,exemplar_display,80,124472,dense_right,p,3,False,112,10.0,10.0
sub_02,1,dense_right,683.7999999970198,img/object-9_120-levels_1D/object9F0Level97F1Level40.png,q,exemplar_display,82,126989,dense_right,p,3,False,98,-14.0,14.0
sub_02,1,dense_right,884.6000000089407,img/object-9_120-levels_1D/object9F0Level109F1Level40.png,q,exemplar_display,84,129497,dense_right,p,3,False,110,12.0,12.0
sub_02,1,dense_right,,img/object-9_120-levels_1D/object9F0Level103F1Level40.png,,exemplar_display,2,23255,dense_right,p,4,,104,-6.0,6.0
sub_02,1,dense_right,780.7000000029802,img/object-9_120-levels_1D/object9F0Level81F1Level40.png,p,exemplar_display,4,25785,dense_right,p,4,True,82,-22.0,22.0
sub_02,1,dense_right,947.3999999910593,img/object-9_120-levels_1D/object9F0Level99F1Level40.png,p,exemplar_display,6,28315,dense_right,p,4,True,100,18.0,18.0
sub_02,1,dense_right,761.8000000119209,img/object-9_120-levels_1D/object9F0Level111F1Level40.png,q,exemplar_display,8,30844,dense_right,p,4,False,112,12.0,12.0
sub_02,1,dense_right,745.5,img/object-9_120-levels_1D/object9F0Level111F1Level40.png,q,exemplar_display,10,33352,dense_right,q,4,True,112,0.0,0.0
sub_02,1,dense_right,670.5999999940395,img/object-9_120-levels_1D/object9F0Level93F1Level40.png,q,exemplar_display,12,35859,dense_right,p,4,False,94,-18.0,18.0
sub_02,1,dense_right,1312.5999999940395,img/object-9_120-levels_1D/object9F0Level89F1Level40.png,q,exemplar_display,14,38365,dense_right,p,4,False,90,-4.0,4.0
sub_02,1,dense_right,539.8999999910593,img/object-9_120-levels_1D/object9F0Level111F1Level40.png,q,exemplar_display,16,40871,dense_right,p,4,False,112,22.0,22.0
sub_02,1,dense_right,666.2000000029802,img/object-9_120-levels_1D/object9F0Level115F1Level40.png,q,exemplar_display,18,43377,dense_right,p,4,False,116,4.0,4.0
sub_02,1,dense_right,614.7999999970198,img/object-9_120-levels_1D/object9F0Level89F1Level40.png,p,exemplar_display,20,45884,dense_right,p,4,True,90,-26.0,26.0
sub_02,1,dense_right,768.9000000059605,img/object-9_120-levels_1D/object9F0Level89F1Level40.png,p,exemplar_display,22,48391,dense_right,q,4,False,90,0.0,0.0
sub_02,1,dense_right,1103.3999999910593,img/object-9_120-levels_1D/object9F0Level105F1Level40.png,q,exemplar_display,24,50899,dense_right,p,4,False,106,16.0,16.0
sub_02,1,dense_right,2329.9000000059605,img/object-9_120-levels_1D/object9F0Level85F1Level40.png,p,exemplar_display,26,53735,dense_right,p,4,True,86,-20.0,20.0
sub_02,1,dense_right,846.5,img/object-9_120-levels_1D/object9F0Level79F1Level40.png,p,exemplar_display,28,56242,dense_right,p,4,True,80,-6.0,6.0
sub_02,1,dense_right,1043.0999999940395,img/object-9_120-levels_1D/object9F0Level77F1Level40.png,q,exemplar_display,30,58749,dense_right,p,4,False,78,-2.0,2.0
sub_02,1,dense_right,464.5,img/object-9_120-levels_1D/object9F0Level77F1Level40.png,q,exemplar_display,32,61254,dense_right,q,4,True,78,0.0,0.0
sub_02,1,dense_right,858.5999999940395,img/object-9_120-levels_1D/object9F0Level105F1Level40.png,p,exemplar_display,34,63762,dense_right,p,4,True,106,28.0,28.0
sub_02,1,dense_right,1042.3999999910593,img/object-9_120-levels_1D/object9F0Level91F1Level40.png,p,exemplar_display,36,66278,dense_right,p,4,True,92,-14.0,14.0
sub_02,1,dense_right,1239.2000000029802,img/object-9_120-levels_1D/object9F0Level107F1Level40.png,p,exemplar_display,38,68783,dense_right,p,4,True,108,16.0,16.0
sub_02,1,dense_right,864.9000000059605,img/object-9_120-levels_1D/object9F0Level107F1Level40.png,q,exemplar_display,40,71305,dense_right,q,4,True,108,0.0,0.0
sub_02,1,dense_right,890.0,img/object-9_120-levels_1D/object9F0Level79F1Level40.png,p,exemplar_display,42,73812,dense_right,p,4,True,80,-28.0,28.0
sub_02,1,dense_right,908.2999999970198,img/object-9_120-levels_1D/object9F0Level111F1Level40.png,p,exemplar_display,44,76319,dense_right,p,4,True,112,32.0,32.0
sub_02,1,dense_right,1050.9000000059605,img/object-9_120-levels_1D/object9F0Level93F1Level40.png,p,exemplar_display,46,78824,dense_right,p,4,True,94,-18.0,18.0
sub_02,1,dense_right,1032.1000000089407,img/object-9_120-levels_1D/object9F0Level109F1Level40.png,p,exemplar_display,48,81330,dense_right,p,4,True,110,16.0,16.0
sub_02,1,dense_right,1649.7999999970198,img/object-9_120-levels_1D/object9F0Level85F1Level40.png,p,exemplar_display,50,83837,dense_right,p,4,True,86,-24.0,24.0
sub_02,1,dense_right,807.2999999970198,img/object-9_120-levels_1D/object9F0Level83F1Level40.png,q,exemplar_display,52,86343,dense_right,p,4,False,84,-2.0,2.0
sub_02,1,dense_right,479.90000000596046,img/object-9_120-levels_1D/object9F0Level93F1Level40.png,q,exemplar_display,54,88850,dense_right,p,4,False,94,10.0,10.0
sub_02,1,dense_right,904.2999999970198,img/object-9_120-levels_1D/object9F0Level113F1Level40.png,p,exemplar_display,56,91373,dense_right,p,4,True,114,20.0,20.0
sub_02,1,dense_right,787.0999999940395,img/object-9_120-levels_1D/object9F0Level113F1Level40.png,q,exemplar_display,58,93881,dense_right,q,4,True,114,0.0,0.0
sub_02,1,dense_right,789.2000000029802,img/object-9_120-levels_1D/object9F0Level85F1Level40.png,p,exemplar_display,60,96386,dense_right,p,4,True,86,-28.0,28.0
sub_02,1,dense_right,982.2999999970198,img/object-9_120-levels_1D/object9F0Level107F1Level40.png,p,exemplar_display,62,98892,dense_right,p,4,True,108,22.0,22.0
sub_02,1,dense_right,860.2000000029802,img/object-9_120-levels_1D/object9F0Level83F1Level40.png,p,exemplar_display,64,101398,dense_right,p,4,True,84,-24.0,24.0
sub_02,1,dense_right,562.2000000029802,img/object-9_120-levels_1D/object9F0Level83F1Level40.png,q,exemplar_display,66,103904,dense_right,q,4,True,84,0.0,0.0
sub_02,1,dense_right,1003.8999999910593,img/object-9_120-levels_1D/object9F0Level85F1Level40.png,q,exemplar_display,68,106412,dense_right,p,4,False,86,2.0,2.0
sub_02,1,dense_right,548.0,img/object-9_120-levels_1D/object9F0Level85F1Level40.png,q,exemplar_display,70,108933,dense_right,q,4,True,86,0.0,0.0
sub_02,1,dense_right,680.0,img/object-9_120-levels_1D/object9F0Level91F1Level40.png,q,exemplar_display,72,111439,dense_right,p,4,False,92,6.0,6.0
sub_02,1,dense_right,649.3999999910593,img/object-9_120-levels_1D/object9F0Level101F1Level40.png,q,exemplar_display,74,113945,dense_right,p,4,False,102,10.0,10.0
sub_02,1,dense_right,923.7999999970198,img/object-9_120-levels_1D/object9F0Level81F1Level40.png,q,exemplar_display,76,116451,dense_right,p,4,False,82,-20.0,20.0
sub_02,1,dense_right,751.5,img/object-9_120-levels_1D/object9F0Level107F1Level40.png,p,exemplar_display,78,118956,dense_right,p,4,True,108,26.0,26.0
sub_02,1,dense_right,915.3999999910593,img/object-9_120-levels_1D/object9F0Level93F1Level40.png,p,exemplar_display,80,121462,dense_right,p,4,True,94,-14.0,14.0
sub_02,1,dense_right,1130.2999999970198,img/object-9_120-levels_1D/object9F0Level91F1Level40.png,q,exemplar_display,82,123969,dense_right,p,4,False,92,-2.0,2.0
sub_02,1,dense_right,2270.3999999910593,img/object-9_120-levels_1D/object9F0Level91F1Level40.png,q,exemplar_display,84,126762,dense_right,q,4,True,92,0.0,0.0
sub_02,1,dense_right,,img/object-9_120-levels_1D/object9F0Level109F1Level40.png,,exemplar_display,2,24000,dense_right,p,5,,110,18.0,18.0
sub_02,1,dense_right,823.2000000029802,img/object-9_120-levels_1D/object9F0Level83F1Level40.png,p,exemplar_display,4,26529,dense_right,p,5,True,84,-26.0,26.0
sub_02,1,dense_right,743.0,img/object-9_120-levels_1D/object9F0Level87F1Level40.png,q,exemplar_display,6,29065,dense_right,p,5,False,88,4.0,4.0
sub_02,1,dense_right,605.5,img/object-9_120-levels_1D/object9F0Level93F1Level40.png,p,exemplar_display,8,31572,dense_right,p,5,True,94,6.0,6.0
sub_02,1,dense_right,647.7000000029802,img/object-9_120-levels_1D/object9F0Level113F1Level40.png,q,exemplar_display,10,34078,dense_right,p,5,False,114,20.0,20.0
sub_02,1,dense_right,444.40000000596046,img/object-9_120-levels_1D/object9F0Level113F1Level40.png,q,exemplar_display,12,36587,dense_right,q,5,True,114,0.0,0.0
sub_02,1,dense_right,722.1000000089407,img/object-9_120-levels_1D/object9F0Level93F1Level40.png,p,exemplar_display,14,39107,dense_right,p,5,True,94,-20.0,20.0
sub_02,1,dense_right,679.0,img/object-9_120-levels_1D/object9F0Level87F1Level40.png,q,exemplar_display,16,41613,dense_right,p,5,False,88,-6.0,6.0
sub_02,1,dense_right,542.2000000029802,img/object-9_120-levels_1D/object9F0Level85F1Level40.png,q,exemplar_display,18,44149,dense_right,p,5,False,86,-2.0,2.0
sub_02,1,dense_right,913.1000000089407,img/object-9_120-levels_1D/object9F0Level99F1Level40.png,p,exemplar_display,20,46656,dense_right,p,5,True,100,14.0,14.0
sub_02,1,dense_right,1057.5,img/object-9_120-levels_1D/object9F0Level91F1Level40.png,q,exemplar_display,22,49162,dense_right,p,5,False,92,-8.0,8.0
sub_02,1,dense_right,1859.4000000059605,img/object-9_120-levels_1D/object9F0Level87F1Level40.png,q,exemplar_display,24,51668,dense_right,p,5,False,88,-4.0,4.0
sub_02,1,dense_right,1246.2999999970198,img/object-9_120-levels_1D/object9F0Level101F1Level40.png,q,exemplar_display,26,54174,dense_right,p,5,False,102,14.0,14.0
sub_02,1,dense_right,919.2000000029802,img/object-9_120-levels_1D/object9F0Level103F1Level40.png,q,exemplar_display,28,56681,dense_right,p,5,False,104,2.0,2.0
sub_02,1,dense_right,691.4000000059605,img/object-9_120-levels_1D/object9F0Level97F1Level40.png,q,exemplar_display,30,59210,dense_right,p,5,False,98,-6.0,6.0
sub_02,1,dense_right,681.5,img/object-9_120-levels_1D/object9F0Level97F1Level40.png,q,exemplar_display,32,61717,dense_right,q,5,True,98,0.0,0.0
sub_02,1,dense_right,618.5,img/object-9_120-levels_1D/object9F0Level105F1Level40.png,q,exemplar_display,34,64241,dense_right,p,5,False,106,8.0,8.0
sub_02,1,dense_right,617.3000000119209,img/object-9_120-levels_1D/object9F0Level99F1Level40.png,q,exemplar_display,36,66762,dense_right,p,5,False,100,-6.0,6.0
sub_02,1,dense_right,801.5,img/object-9_120-levels_1D/object9F0Level81F1Level40.png,p,exemplar_display,38,69268,dense_right,p,5,True,82,-18.0,18.0
sub_02,1,dense_right,837.5,img/object-9_120-levels_1D/object9F0Level77F1Level40.png,q,exemplar_display,40,71779,dense_right,p,5,False,78,-4.0,4.0
sub_02,1,dense_right,855.5,img/object-9_120-levels_1D/object9F0Level77F1Level40.png,q,exemplar_display,42,74285,dense_right,q,5,True,78,0.0,0.0
sub_02,1,dense_right,860.5,img/object-9_120-levels_1D/object9F0Level81F1Level40.png,q,exemplar_display,44,76791,dense_right,p,5,False,82,4.0,4.0
sub_02,1,dense_right,468.80000001192093,img/object-9_120-levels_1D/object9F0Level95F1Level40.png,q,exemplar_display,46,79302,dense_right,p,5,False,96,14.0,14.0
sub_02,1,dense_right,912.0,img/object-9_120-levels_1D/object9F0Level97F1Level40.png,q,exemplar_display,48,81824,dense_right,p,5,False,98,2.0,2.0
sub_02,1,dense_right,939.0,img/object-9_120-levels_1D/object9F0Level77F1Level40.png,p,exemplar_display,50,84330,dense_right,p,5,True,78,-20.0,20.0
sub_02,1,dense_right,886.6000000089407,img/object-9_120-levels_1D/object9F0Level105F1Level40.png,p,exemplar_display,52,86837,dense_right,p,5,True,106,28.0,28.0
sub_02,1,dense_right,718.9000000059605,img/object-9_120-levels_1D/object9F0Level95F1Level40.png,q,exemplar_display,54,89346,dense_right,p,5,False,96,-10.0,10.0
sub_02,1,dense_right,1372.1000000089407,img/object-9_120-levels_1D/object9F0Level117F1Level40.png,q,exemplar_display,56,91859,dense_right,p,5,False,118,22.0,22.0
sub_02,1,dense_right,774.5,img/object-9_120-levels_1D/object9F0Level81F1Level40.png,p,exemplar_display,58,94378,dense_right,p,5,True,82,-36.0,36.0
sub_02,1,dense_right,868.0,img/object-9_120-levels_1D/object9F0Level89F1Level40.png,q,exemplar_display,60,96892,dense_right,p,5,False,90,8.0,8.0
sub_02,1,dense_right,554.9000000059605,img/object-9_120-levels_1D/object9F0Level85F1Level40.png,q,exemplar_display,62,99397,dense_right,p,5,False,86,-4.0,4.0
sub_02,1,dense_right,550.2999999970198,img/object-9_120-levels_1D/object9F0Level85F1Level40.png,q,exemplar_display,64,101923,dense_right,q,5,True,86,0.0,0.0
sub_02,1,dense_right,874.2000000029802,img/object-9_120-levels_1D/object9F0Level109F1Level40.png,p,exemplar_display,66,104429,dense_right,p,5,True,110,24.0,24.0
sub_02,1,dense_right,1297.7000000029802,img/object-9_120-levels_1D/object9F0Level101F1Level40.png,q,exemplar_display,68,106935,dense_right,p,5,False,102,-8.0,8.0
sub_02,1,dense_right,827.5,img/object-9_120-levels_1D/object9F0Level115F1Level40.png,p,exemplar_display,70,109441,dense_right,p,5,True,116,14.0,14.0
sub_02,1,dense_right,590.7999999970198,img/object-9_120-levels_1D/object9F0Level115F1Level40.png,q,exemplar_display,72,111952,dense_right,q,5,True,116,0.0,0.0
sub_02,1,dense_right,740.2000000029802,img/object-9_120-levels_1D/object9F0Level103F1Level40.png,q,exemplar_display,74,114467,dense_right,p,5,False,104,-12.0,12.0
sub_02,1,dense_right,880.6999999880791,img/object-9_120-levels_1D/object9F0Level103F1Level40.png,q,exemplar_display,76,116973,dense_right,q,5,True,104,0.0,0.0
sub_02,1,dense_right,691.5,img/object-9_120-levels_1D/object9F0Level101F1Level40.png,q,exemplar_display,78,119499,dense_right,p,5,False,102,-2.0,2.0
sub_02,1,dense_right,828.1999999880791,img/object-9_120-levels_1D/object9F0Level113F1Level40.png,q,exemplar_display,80,122004,dense_right,p,5,False,114,12.0,12.0
sub_02,1,dense_right,874.7000000029802,img/object-9_120-levels_1D/object9F0Level81F1Level40.png,p,exemplar_display,82,124514,dense_right,p,5,True,82,-32.0,32.0
sub_02,1,dense_right,823.5999999940395,img/object-9_120-levels_1D/object9F0Level81F1Level40.png,q,exemplar_display,84,127020,dense_right,q,5,True,82,0.0,0.0
sub_03,1,dense_left,,img/object-9_120-levels_1D/object9F0Level31F1Level40.png,,exemplar_display,2,45801,dense_left,,1,,32,,
sub_03,1,dense_left,2185.699999999255,img/object-9_120-levels_1D/object9F0Level51F1Level40.png,q,exemplar_display,4,48495,dense_left,p,1,False,52,20.0,20.0
sub_03,1,dense_left,800.8000000007451,img/object-9_120-levels_1D/object9F0Level51F1Level40.png,q,exemplar_display,6,51001,dense_left,q,1,True,52,0.0,0.0
sub_03,1,dense_left,994.2000000029802,img/object-9_120-levels_1D/object9F0Level29F1Level40.png,p,exemplar_display,8,53507,dense_left,p,1,True,30,-22.0,22.0
sub_03,1,dense_left,760.0,img/object-9_120-levels_1D/object9F0Level29F1Level40.png,q,exemplar_display,10,56014,dense_left,q,1,True,30,0.0,0.0
sub_03,1,dense_left,738.5,img/object-9_120-levels_1D/object9F0Level41F1Level40.png,q,exemplar_display,12,58524,dense_left,p,1,False,42,12.0,12.0
sub_03,1,dense_left,589.4000000022352,img/object-9_120-levels_1D/object9F0Level65F1Level40.png,p,exemplar_display,14,61029,dense_left,p,1,True,66,24.0,24.0
sub_03,1,dense_left,598.1999999992549,img/object-9_120-levels_1D/object9F0Level65F1Level40.png,p,exemplar_display,16,63551,dense_left,q,1,False,66,0.0,0.0
sub_03,1,dense_left,718.3999999985099,img/object-9_120-levels_1D/object9F0Level59F1Level40.png,p,exemplar_display,18,66058,dense_left,p,1,True,60,-6.0,6.0
sub_03,1,dense_left,1010.5,img/object-9_120-levels_1D/object9F0Level45F1Level40.png,q,exemplar_display,20,68565,dense_left,p,1,False,46,-14.0,14.0
sub_03,1,dense_left,954.8999999985099,img/object-9_120-levels_1D/object9F0Level69F1Level40.png,p,exemplar_display,22,71071,dense_left,p,1,True,70,24.0,24.0
sub_03,1,dense_left,775.3000000007451,img/object-9_120-levels_1D/object9F0Level63F1Level40.png,q,exemplar_display,24,73577,dense_left,p,1,False,64,-6.0,6.0
sub_03,1,dense_left,1117.0,img/object-9_120-levels_1D/object9F0Level53F1Level40.png,q,exemplar_display,26,76083,dense_left,p,1,False,54,-10.0,10.0
sub_03,1,dense_left,690.9000000022352,img/object-9_120-levels_1D/object9F0Level39F1Level40.png,p,exemplar_display,28,78591,dense_left,p,1,True,40,-14.0,14.0
sub_03,1,dense_left,747.9000000022352,img/object-9_120-levels_1D/object9F0Level39F1Level40.png,q,exemplar_display,30,81097,dense_left,q,1,True,40,0.0,0.0
sub_03,1,dense_left,1017.1000000014901,img/object-9_120-levels_1D/object9F0Level67F1Level40.png,p,exemplar_display,32,83611,dense_left,p,1,True,68,28.0,28.0
sub_03,1,dense_left,664.9000000022352,img/object-9_120-levels_1D/object9F0Level59F1Level40.png,p,exemplar_display,34,86118,dense_left,p,1,True,60,-8.0,8.0
sub_03,1,dense_left,778.1999999992549,img/object-9_120-levels_1D/object9F0Level59F1Level40.png,q,exemplar_display,36,88626,dense_left,q,1,True,60,0.0,0.0
sub_03,1,dense_left,657.7999999970198,img/object-9_120-levels_1D/object9F0Level29F1Level40.png,p,exemplar_display,38,91133,dense_left,p,1,True,30,-30.0,30.0
sub_03,1,dense_left,739.1999999992549,img/object-9_120-levels_1D/object9F0Level29F1Level40.png,q,exemplar_display,40,93641,dense_left,q,1,True,30,0.0,0.0
sub_03,1,dense_left,618.0999999977648,img/object-9_120-levels_1D/object9F0Level65F1Level40.png,p,exemplar_display,42,96147,dense_left,p,1,True,66,36.0,36.0
sub_03,1,dense_left,983.3000000007451,img/object-9_120-levels_1D/object9F0Level55F1Level40.png,q,exemplar_display,44,98655,dense_left,p,1,False,56,-10.0,10.0
sub_03,1,dense_left,814.8999999985099,img/object-9_120-levels_1D/object9F0Level49F1Level40.png,q,exemplar_display,46,101162,dense_left,p,1,False,50,-6.0,6.0
sub_03,1,dense_left,609.8000000007451,img/object-9_120-levels_1D/object9F0Level49F1Level40.png,q,exemplar_display,48,103687,dense_left,q,1,True,50,0.0,0.0
sub_03,1,dense_left,874.8000000007451,img/object-9_120-levels_1D/object9F0Level59F1Level40.png,p,exemplar_display,50,106193,dense_left,p,1,True,60,10.0,10.0
sub_03,1,dense_left,806.2999999970198,img/object-9_120-levels_1D/object9F0Level45F1Level40.png,q,exemplar_display,52,108701,dense_left,p,1,False,46,-14.0,14.0
sub_03,1,dense_left,602.0,img/object-9_120-levels_1D/object9F0Level37F1Level40.png,q,exemplar_display,54,111208,dense_left,p,1,False,38,-8.0,8.0
sub_03,1,dense_left,626.8999999985099,img/object-9_120-levels_1D/object9F0Level37F1Level40.png,q,exemplar_display,56,113716,dense_left,q,1,True,38,0.0,0.0
sub_03,1,dense_left,676.3000000007451,img/object-9_120-levels_1D/object9F0Level37F1Level40.png,q,exemplar_display,58,116223,dense_left,q,1,True,38,0.0,0.0
sub_03,1,dense_left,589.7999999970198,img/object-9_120-levels_1D/object9F0Level59F1Level40.png,p,exemplar_display,60,118732,dense_left,p,1,True,60,22.0,22.0
sub_03,1,dense_left,670.3999999985099,img/object-9_120-levels_1D/object9F0Level29F1Level40.png,q,exemplar_display,62,121238,dense_left,p,1,False,30,-30.0,30.0
sub_03,1,dense_left,609.0,img/object-9_120-levels_1D/object9F0Level59F1Level40.png,p,exemplar_display,64,123745,dense_left,p,1,True,60,30.0,30.0
sub_03,1,dense_left,952.6999999992549,img/object-9_120-levels_1D/object9F0Level59F1Level40.png,q,exemplar_display,66,126251,dense_left,q,1,True,60,0.0,0.0
sub_03,1,dense_left,874.0999999977648,img/object-9_120-levels_1D/object9F0Level51F1Level40.png,q,exemplar_display,68,128758,dense_left,p,1,False,52,-8.0,8.0
sub_03,1,dense_left,712.5,img/object-9_120-levels_1D/object9F0Level33F1Level40.png,p,exemplar_display,70,131263,dense_left,p,1,True,34,-18.0,18.0
sub_03,1,dense_left,791.5,img/object-9_120-levels_1D/object9F0Level31F1Level40.png,q,exemplar_display,72,133768,dense_left,p,1,False,32,-2.0,2.0
sub_03,1,dense_left,615.5,img/object-9_120-levels_1D/object9F0Level55F1Level40.png,p,exemplar_display,74,136275,dense_left,p,1,True,56,24.0,24.0
sub_03,1,dense_left,771.0,img/object-9_120-levels_1D/object9F0Level33F1Level40.png,q,exemplar_display,76,138782,dense_left,p,1,False,34,-22.0,22.0
sub_03,1,dense_left,1113.4000000022352,img/object-9_120-levels_1D/object9F0Level33F1Level40.png,q,exemplar_display,78,141287,dense_left,q,1,True,34,0.0,0.0
sub_03,1,dense_left,1023.5999999977648,img/object-9_120-levels_1D/object9F0Level43F1Level40.png,q,exemplar_display,80,143793,dense_left,p,1,False,44,10.0,10.0
sub_03,1,dense_left,727.5,img/object-9_120-levels_1D/object9F0Level43F1Level40.png,q,exemplar_display,82,146299,dense_left,q,1,True,44,0.0,0.0
sub_03,1,dense_left,1266.7000000029802,img/object-9_120-levels_1D/object9F0Level47F1Level40.png,p,exemplar_display,84,148807,dense_left,p,1,True,48,4.0,4.0
sub_03,1,dense_left,,img/object-9_120-levels_1D/object9F0Level37F1Level40.png,,exemplar_display,2,41588,dense_left,p,2,,38,-10.0,10.0
sub_03,1,dense_left,1034.5999999977648,img/object-9_120-levels_1D/object9F0Level39F1Level40.png,q,exemplar_display,4,44095,dense_left,p,2,False,40,2.0,2.0
sub_03,1,dense_left,567.4000000022352,img/object-9_120-levels_1D/object9F0Level63F1Level40.png,p,exemplar_display,6,46603,dense_left,p,2,True,64,24.0,24.0
sub_03,1,dense_left,764.3999999985099,img/object-9_120-levels_1D/object9F0Level41F1Level40.png,q,exemplar_display,8,49110,dense_left,p,2,False,42,-22.0,22.0
sub_03,1,dense_left,571.0,img/object-9_120-levels_1D/object9F0Level61F1Level40.png,p,exemplar_display,10,51618,dense_left,p,2,True,62,20.0,20.0
sub_03,1,dense_left,823.8999999985099,img/object-9_120-levels_1D/object9F0Level63F1Level40.png,q,exemplar_display,12,54127,dense_left,p,2,False,64,2.0,2.0
sub_03,1,dense_left,595.1000000014901,img/object-9_120-levels_1D/object9F0Level29F1Level40.png,p,exemplar_display,14,56633,dense_left,p,2,True,30,-34.0,34.0
sub_03,1,dense_left,706.5999999977648,img/object-9_120-levels_1D/object9F0Level65F1Level40.png,p,exemplar_display,16,59159,dense_left,p,2,True,66,36.0,36.0
sub_03,1,dense_left,811.0999999977648,img/object-9_120-levels_1D/object9F0Level35F1Level40.png,p,exemplar_display,18,61667,dense_left,p,2,True,36,-30.0,30.0
sub_03,1,dense_left,702.9000000022352,img/object-9_120-levels_1D/object9F0Level61F1Level40.png,p,exemplar_display,20,64175,dense_left,p,2,True,62,26.0,26.0
sub_03,1,dense_left,792.8999999985099,img/object-9_120-levels_1D/object9F0Level53F1Level40.png,q,exemplar_display,22,66681,dense_left,p,2,False,54,-8.0,8.0
sub_03,1,dense_left,713.6999999992549,img/object-9_120-levels_1D/object9F0Level35F1Level40.png,p,exemplar_display,24,69189,dense_left,p,2,True,36,-18.0,18.0
sub_03,1,dense_left,718.8000000007451,img/object-9_120-levels_1D/object9F0Level59F1Level40.png,p,exemplar_display,26,71695,dense_left,p,2,True,60,24.0,24.0
sub_03,1,dense_left,859.3000000007451,img/object-9_120-levels_1D/object9F0Level51F1Level40.png,q,exemplar_display,28,74203,dense_left,p,2,False,52,-8.0,8.0
sub_03,1,dense_left,929.3999999985099,img/object-9_120-levels_1D/object9F0Level69F1Level40.png,p,exemplar_display,30,76726,dense_left,p,2,True,70,18.0,18.0
sub_03,1,dense_left,852.1999999992549,img/object-9_120-levels_1D/object9F0Level49F1Level40.png,p,exemplar_display,32,79232,dense_left,p,2,True,50,-20.0,20.0
sub_03,1,dense_left,635.8999999985099,img/object-9_120-levels_1D/object9F0Level39F1Level40.png,q,exemplar_display,34,81740,dense_left,p,2,False,40,-10.0,10.0
sub_03,1,dense_left,665.3000000007451,img/object-9_120-levels_1D/object9F0Level47F1Level40.png,q,exemplar_display,36,84248,dense_left,p,2,False,48,8.0,8.0
sub_03,1,dense_left,562.2000000029802,img/object-9_120-levels_1D/object9F0Level65F1Level40.png,p,exemplar_display,38,86754,dense_left,p,2,True,66,18.0,18.0
sub_03,1,dense_left,694.6999999992549,img/object-9_120-levels_1D/object9F0Level67F1Level40.png,q,exemplar_display,40,89258,dense_left,p,2,False,68,2.0,2.0
sub_03,1,dense_left,972.1000000014901,img/object-9_120-levels_1D/object9F0Level55F1Level40.png,q,exemplar_display,42,91764,dense_left,p,2,False,56,-12.0,12.0
sub_03,1,dense_left,707.9000000022352,img/object-9_120-levels_1D/object9F0Level61F1Level40.png,q,exemplar_display,44,94284,dense_left,p,2,False,62,6.0,6.0
sub_03,1,dense_left,829.1999999992549,img/object-9_120-levels_1D/object9F0Level67F1Level40.png,q,exemplar_display,46,96791,dense_left,p,2,False,68,6.0,6.0
sub_03,1,dense_left,788.4000000022352,img/object-9_120-levels_1D/object9F0Level49F1Level40.png,p,exemplar_display,48,99298,dense_left,p,2,True,50,-18.0,18.0
sub_03,1,dense_left,939.1000000014901,img/object-9_120-levels_1D/object9F0Level31F1Level40.png,p,exemplar_display,50,101804,dense_left,p,2,True,32,-18.0,18.0
sub_03,1,dense_left,654.0,img/object-9_120-levels_1D/object9F0Level31F1Level40.png,q,exemplar_display,52,104313,dense_left,q,2,True,32,0.0,0.0
sub_03,1,dense_left,521.6000000014901,img/object-9_120-levels_1D/object9F0Level67F1Level40.png,p,exemplar_display,54,106819,dense_left,p,2,True,68,36.0,36.0
sub_03,1,dense_left,653.9000000022352,img/object-9_120-levels_1D/object9F0Level69F1Level40.png,q,exemplar_display,56,109325,dense_left,p,2,False,70,2.0,2.0
sub_03,1,dense_left,630.6000000014901,img/object-9_120-levels_1D/object9F0Level69F1Level40.png,q,exemplar_display,58,111842,dense_left,q,2,True,70,0.0,0.0
sub_03,1,dense_left,767.0999999977648,img/object-9_120-levels_1D/object9F0Level35F1Level40.png,p,exemplar_display,60,114350,dense_left,p,2,True,36,-34.0,34.0
sub_03,1,dense_left,794.1999999992549,img/object-9_120-levels_1D/object9F0Level53F1Level40.png,p,exemplar_display,62,116857,dense_left,p,2,True,54,18.0,18.0
sub_03,1,dense_left,1064.2999999970198,img/object-9_120-levels_1D/object9F0Level49F1Level40.png,q,exemplar_display,64,119363,dense_left,p,2,False,50,-4.0,4.0
sub_03,1,dense_left,832.8000000007451,img/object-9_120-levels_1D/object9F0Level33F1Level40.png,p,exemplar_display,66,121869,dense_left,p,2,True,34,-16.0,16.0
sub_03,1,dense_left,813.7000000029802,img/object-9_120-levels_1D/object9F0Level47F1Level40.png,q,exemplar_display,68,124378,dense_left,p,2,False,48,14.0,14.0
sub_03,1,dense_left,688.5999999977648,img/object-9_120-levels_1D/object9F0Level47F1Level40.png,q,exemplar_display,70,126884,dense_left,q,2,True,48,0.0,0.0
sub_03,1,dense_left,644.0999999977648,img/object-9_120-levels_1D/object9F0Level57F1Level40.png,p,exemplar_display,72,129392,dense_left,p,2,True,58,10.0,10.0
sub_03,1,dense_left,706.6999999992549,img/object-9_120-levels_1D/object9F0Level31F1Level40.png,p,exemplar_display,74,131898,dense_left,p,2,True,32,-26.0,26.0
sub_03,1,dense_left,634.3000000007451,img/object-9_120-levels_1D/object9F0Level55F1Level40.png,p,exemplar_display,76,134405,dense_left,p,2,True,56,24.0,24.0
sub_03,1,dense_left,698.6999999992549,img/object-9_120-levels_1D/object9F0Level29F1Level40.png,q,exemplar_display,78,136910,dense_left,p,2,False,30,-26.0,26.0
sub_03,1,dense_left,743.5,img/object-9_120-levels_1D/object9F0Level51F1Level40.png,p,exemplar_display,80,139416,dense_left,p,2,True,52,22.0,22.0
sub_03,1,dense_left,863.6999999992549,img/object-9_120-levels_1D/object9F0Level35F1Level40.png,q,exemplar_display,82,141922,dense_left,p,2,False,36,-16.0,16.0
sub_03,1,dense_left,709.5,img/object-9_120-levels_1D/object9F0Level65F1Level40.png,p,exemplar_display,84,144429,dense_left,p,2,True,66,30.0,30.0
sub_03,1,dense_left,,img/object-9_120-levels_1D/object9F0Level57F1Level40.png,,exemplar_display,2,48912,dense_left,p,3,,58,-8.0,8.0
sub_03,1,dense_left,643.3999999985099,img/object-9_120-levels_1D/object9F0Level53F1Level40.png,q,exemplar_display,4,51421,dense_left,p,3,False,54,-4.0,4.0
sub_03,1,dense_left,1574.699999999255,img/object-9_120-levels_1D/object9F0Level49F1Level40.png,q,exemplar_display,6,53929,dense_left,p,3,False,50,-4.0,4.0
sub_03,1,dense_left,1018.3000000007451,img/object-9_120-levels_1D/object9F0Level61F1Level40.png,q,exemplar_display,8,56437,dense_left,p,3,False,62,12.0,12.0
sub_03,1,dense_left,747.8000000007451,img/object-9_120-levels_1D/object9F0Level45F1Level40.png,q,exemplar_display,10,58944,dense_left,p,3,False,46,-16.0,16.0
sub_03,1,dense_left,722.1000000014901,img/object-9_120-levels_1D/object9F0Level31F1Level40.png,q,exemplar_display,12,61451,dense_left,p,3,False,32,-14.0,14.0
sub_03,1,dense_left,588.7999999970198,img/object-9_120-levels_1D/object9F0Level63F1Level40.png,p,exemplar_display,14,63956,dense_left,p,3,True,64,32.0,32.0
sub_03,1,dense_left,805.7000000029802,img/object-9_120-levels_1D/object9F0Level33F1Level40.png,p,exemplar_display,16,66481,dense_left,p,3,True,34,-30.0,30.0
sub_03,1,dense_left,599.0,img/object-9_120-levels_1D/object9F0Level65F1Level40.png,p,exemplar_display,18,68987,dense_left,p,3,True,66,32.0,32.0
sub_03,1,dense_left,660.9000000022352,img/object-9_120-levels_1D/object9F0Level63F1Level40.png,q,exemplar_display,20,71495,dense_left,p,3,False,64,-2.0,2.0
sub_03,1,dense_left,629.8000000007451,img/object-9_120-levels_1D/object9F0Level63F1Level40.png,q,exemplar_display,22,74001,dense_left,q,3,True,64,0.0,0.0
sub_03,1,dense_left,898.1000000014901,img/object-9_120-levels_1D/object9F0Level29F1Level40.png,p,exemplar_display,24,76508,dense_left,p,3,True,30,-34.0,34.0
sub_03,1,dense_left,692.9000000022352,img/object-9_120-levels_1D/object9F0Level69F1Level40.png,p,exemplar_display,26,79015,dense_left,p,3,True,70,40.0,40.0
sub_03,1,dense_left,638.6000000014901,img/object-9_120-levels_1D/object9F0Level69F1Level40.png,q,exemplar_display,28,81522,dense_left,q,3,True,70,0.0,0.0
sub_03,1,dense_left,808.3000000007451,img/object-9_120-levels_1D/object9F0Level63F1Level40.png,p,exemplar_display,30,84046,dense_left,p,3,True,64,-6.0,6.0
sub_03,1,dense_left,897.0,img/object-9_120-levels_1D/object9F0Level63F1Level40.png,p,exemplar_display,32,86553,dense_left,q,3,False,64,0.0,0.0
sub_03,1,dense_left,758.5999999977648,img/object-9_120-levels_1D/object9F0Level43F1Level40.png,p,exemplar_display,34,89060,dense_left,p,3,True,44,-20.0,20.0
sub_03,1,dense_left,706.2000000029802,img/object-9_120-levels_1D/object9F0Level37F1Level40.png,q,exemplar_display,36,91567,dense_left,p,3,False,38,-6.0,6.0
sub_03,1,dense_left,523.5,img/object-9_120-levels_1D/object9F0Level65F1Level40.png,p,exemplar_display,38,94073,dense_left,p,3,True,66,28.0,28.0
sub_03,1,dense_left,744.5999999977648,img/object-9_120-levels_1D/object9F0Level65F1Level40.png,q,exemplar_display,40,96579,dense_left,q,3,True,66,0.0,0.0
sub_03,1,dense_left,698.8000000007451,img/object-9_120-levels_1D/object9F0Level55F1Level40.png,q,exemplar_display,42,99085,dense_left,p,3,False,56,-10.0,10.0
sub_03,1,dense_left,647.0,img/object-9_120-levels_1D/object9F0Level55F1Level40.png,q,exemplar_display,44,101611,dense_left,q,3,True,56,0.0,0.0
sub_03,1,dense_left,659.3000000007451,img/object-9_120-levels_1D/object9F0Level59F1Level40.png,q,exemplar_display,46,104117,dense_left,p,3,False,60,4.0,4.0
sub_03,1,dense_left,574.8000000007451,img/object-9_120-levels_1D/object9F0Level35F1Level40.png,p,exemplar_display,48,106624,dense_left,p,3,True,36,-24.0,24.0
sub_03,1,dense_left,671.1000000014901,img/object-9_120-levels_1D/object9F0Level45F1Level40.png,q,exemplar_display,50,109131,dense_left,p,3,False,46,10.0,10.0
sub_03,1,dense_left,728.5999999977648,img/object-9_120-levels_1D/object9F0Level45F1Level40.png,q,exemplar_display,52,111639,dense_left,q,3,True,46,0.0,0.0
sub_03,1,dense_left,932.2999999970198,img/object-9_120-levels_1D/object9F0Level51F1Level40.png,p,exemplar_display,54,114145,dense_left,p,3,True,52,6.0,6.0
sub_03,1,dense_left,652.8000000007451,img/object-9_120-levels_1D/object9F0Level69F1Level40.png,p,exemplar_display,56,116651,dense_left,p,3,True,70,18.0,18.0
sub_03,1,dense_left,901.3999999985099,img/object-9_120-levels_1D/object9F0Level51F1Level40.png,p,exemplar_display,58,119183,dense_left,p,3,True,52,-18.0,18.0
sub_03,1,dense_left,770.4000000022352,img/object-9_120-levels_1D/object9F0Level51F1Level40.png,q,exemplar_display,60,121707,dense_left,q,3,True,52,0.0,0.0
sub_03,1,dense_left,603.2000000029802,img/object-9_120-levels_1D/object9F0Level49F1Level40.png,q,exemplar_display,62,124213,dense_left,p,3,False,50,-2.0,2.0
sub_03,1,dense_left,641.8999999985099,img/object-9_120-levels_1D/object9F0Level49F1Level40.png,q,exemplar_display,64,126720,dense_left,q,3,True,50,0.0,0.0
sub_03,1,dense_left,562.1000000014901,img/object-9_120-levels_1D/object9F0Level51F1Level40.png,q,exemplar_display,66,129226,dense_left,p,3,False,52,2.0,2.0
sub_03,1,dense_left,654.1999999992549,img/object-9_120-levels_1D/object9F0Level47F1Level40.png,q,exemplar_display,68,131734,dense_left,p,3,False,48,-4.0,4.0
sub_03,1,dense_left,669.7000000029802,img/object-9_120-levels_1D/object9F0Level33F1Level40.png,p,exemplar_display,70,134241,dense_left,p,3,True,34,-14.0,14.0
sub_03,1,dense_left,715.3999999985099,img/object-9_120-levels_1D/object9F0Level43F1Level40.png,p,exemplar_display,72,136745,dense_left,p,3,True,44,10.0,10.0
sub_03,1,dense_left,858.8999999985099,img/object-9_120-levels_1D/object9F0Level53F1Level40.png,p,exemplar_display,74,139251,dense_left,p,3,True,54,10.0,10.0
sub_03,1,dense_left,702.6000000014901,img/object-9_120-levels_1D/object9F0Level69F1Level40.png,p,exemplar_display,76,141759,dense_left,p,3,True,70,16.0,16.0
sub_03,1,dense_left,695.1999999992549,img/object-9_120-levels_1D/object9F0Level41F1Level40.png,p,exemplar_display,78,144265,dense_left,p,3,True,42,-28.0,28.0
sub_03,1,dense_left,627.1000000014901,img/object-9_120-levels_1D/object9F0Level41F1Level40.png,q,exemplar_display,80,146771,dense_left,q,3,True,42,0.0,0.0
sub_03,1,dense_left,647.6000000014901,img/object-9_120-levels_1D/object9F0Level43F1Level40.png,q,exemplar_display,82,149277,dense_left,p,3,False,44,2.0,2.0
sub_03,1,dense_left,876.3000000007451,img/object-9_120-levels_1D/object9F0Level35F1Level40.png,p,exemplar_display,84,151799,dense_left,p,3,True,36,-8.0,8.0
sub_03,1,dense_left,,img/object-9_120-levels_1D/object9F0Level31F1Level40.png,,exemplar_display,2,52001,dense_left,p,4,,32,-4.0,4.0
sub_03,1,dense_left,573.1999999992549,img/object-9_120-levels_1D/object9F0Level31F1Level40.png,q,exemplar_display,4,54510,dense_left,q,4,True,32,0.0,0.0
sub_03,1,dense_left,648.1999999992549,img/object-9_120-levels_1D/object9F0Level65F1Level40.png,p,exemplar_display,6,57018,dense_left,p,4,True,66,34.0,34.0
sub_03,1,dense_left,636.5999999977648,img/object-9_120-levels_1D/object9F0Level43F1Level40.png,p,exemplar_display,8,59526,dense_left,p,4,True,44,-22.0,22.0
sub_03,1,dense_left,658.6999999992549,img/object-9_120-levels_1D/object9F0Level29F1Level40.png,q,exemplar_display,10,62035,dense_left,p,4,False,30,-14.0,14.0
sub_03,1,dense_left,546.0,img/object-9_120-levels_1D/object9F0Level37F1Level40.png,q,exemplar_display,12,64544,dense_left,p,4,False,38,8.0,8.0
sub_03,1,dense_left,541.3000000007451,img/object-9_120-levels_1D/object9F0Level67F1Level40.png,p,exemplar_display,14,67051,dense_left,p,4,True,68,30.0,30.0
sub_03,1,dense_left,738.4000000022352,img/object-9_120-levels_1D/object9F0Level39F1Level40.png,q,exemplar_display,16,69576,dense_left,p,4,False,40,-28.0,28.0
sub_03,1,dense_left,667.1000000014901,img/object-9_120-levels_1D/object9F0Level45F1Level40.png,q,exemplar_display,18,72083,dense_left,p,4,False,46,6.0,6.0
sub_03,1,dense_left,599.7000000029802,img/object-9_120-levels_1D/object9F0Level35F1Level40.png,q,exemplar_display,20,74591,dense_left,p,4,False,36,-10.0,10.0
sub_03,1,dense_left,590.8999999985099,img/object-9_120-levels_1D/object9F0Level35F1Level40.png,q,exemplar_display,22,77098,dense_left,q,4,True,36,0.0,0.0
sub_03,1,dense_left,768.5,img/object-9_120-levels_1D/object9F0Level45F1Level40.png,q,exemplar_display,24,79604,dense_left,p,4,False,46,10.0,10.0
sub_03,1,dense_left,655.5,img/object-9_120-levels_1D/object9F0Level33F1Level40.png,q,exemplar_display,26,82109,dense_left,p,4,False,34,-12.0,12.0
sub_03,1,dense_left,704.6999999992549,img/object-9_120-levels_1D/object9F0Level29F1Level40.png,q,exemplar_display,28,84615,dense_left,p,4,False,30,-4.0,4.0
sub_03,1,dense_left,959.5999999977648,img/object-9_120-levels_1D/object9F0Level45F1Level40.png,p,exemplar_display,30,87123,dense_left,p,4,True,46,16.0,16.0
sub_03,1,dense_left,714.3000000007451,img/object-9_120-levels_1D/object9F0Level63F1Level40.png,p,exemplar_display,32,89649,dense_left,p,4,True,64,18.0,18.0
sub_03,1,dense_left,1041.5999999977648,img/object-9_120-levels_1D/object9F0Level43F1Level40.png,p,exemplar_display,34,92156,dense_left,p,4,True,44,-20.0,20.0
sub_03,1,dense_left,814.6999999992549,img/object-9_120-levels_1D/object9F0Level45F1Level40.png,q,exemplar_display,36,94664,dense_left,p,4,False,46,2.0,2.0
sub_03,1,dense_left,983.0,img/object-9_120-levels_1D/object9F0Level41F1Level40.png,p,exemplar_display,38,97172,dense_left,p,4,True,42,-4.0,4.0
sub_03,1,dense_left,893.5999999977648,img/object-9_120-levels_1D/object9F0Level41F1Level40.png,q,exemplar_display,40,99678,dense_left,q,4,True,42,0.0,0.0
sub_03,1,dense_left,579.1999999992549,img/object-9_120-levels_1D/object9F0Level35F1Level40.png,q,exemplar_display,42,102191,dense_left,p,4,False,36,-6.0,6.0
sub_03,1,dense_left,661.7000000029802,img/object-9_120-levels_1D/object9F0Level35F1Level40.png,q,exemplar_display,44,104699,dense_left,q,4,True,36,0.0,0.0
sub_03,1,dense_left,601.5,img/object-9_120-levels_1D/object9F0Level57F1Level40.png,p,exemplar_display,46,107207,dense_left,p,4,True,58,22.0,22.0
sub_03,1,dense_left,956.6999999992549,img/object-9_120-levels_1D/object9F0Level53F1Level40.png,q,exemplar_display,48,109714,dense_left,p,4,False,54,-4.0,4.0
sub_03,1,dense_left,727.5,img/object-9_120-levels_1D/object9F0Level53F1Level40.png,q,exemplar_display,50,112223,dense_left,q,4,True,54,0.0,0.0
sub_03,1,dense_left,631.0,img/object-9_120-levels_1D/object9F0Level61F1Level40.png,q,exemplar_display,52,114730,dense_left,p,4,False,62,8.0,8.0
sub_03,1,dense_left,475.19999999925494,img/object-9_120-levels_1D/object9F0Level61F1Level40.png,q,exemplar_display,54,117236,dense_left,q,4,True,62,0.0,0.0
sub_03,1,dense_left,909.5999999977648,img/object-9_120-levels_1D/object9F0Level47F1Level40.png,p,exemplar_display,56,119742,dense_left,p,4,True,48,-14.0,14.0
sub_03,1,dense_left,679.5999999977648,img/object-9_120-levels_1D/object9F0Level39F1Level40.png,q,exemplar_display,58,122261,dense_left,p,4,False,40,-8.0,8.0
sub_03,1,dense_left,542.2000000029802,img/object-9_120-levels_1D/object9F0Level45F1Level40.png,q,exemplar_display,60,124768,dense_left,p,4,False,46,6.0,6.0
sub_03,1,dense_left,589.8000000007451,img/object-9_120-levels_1D/object9F0Level57F1Level40.png,p,exemplar_display,62,127274,dense_left,p,4,True,58,12.0,12.0
sub_03,1,dense_left,510.30000000074506,img/object-9_120-levels_1D/object9F0Level31F1Level40.png,q,exemplar_display,64,129787,dense_left,p,4,False,32,-26.0,26.0
sub_03,1,dense_left,820.5,img/object-9_120-levels_1D/object9F0Level41F1Level40.png,q,exemplar_display,66,132293,dense_left,p,4,False,42,10.0,10.0
sub_03,1,dense_left,876.8999999985099,img/object-9_120-levels_1D/object9F0Level51F1Level40.png,q,exemplar_display,68,134800,dense_left,p,4,False,52,10.0,10.0
sub_03,1,dense_left,592.1000000014901,img/object-9_120-levels_1D/object9F0Level47F1Level40.png,q,exemplar_display,70,137306,dense_left,p,4,False,48,-4.0,4.0
sub_03,1,dense_left,674.8000000007451,img/object-9_120-levels_1D/object9F0Level41F1Level40.png,q,exemplar_display,72,139816,dense_left,p,4,False,42,-6.0,6.0
sub_03,1,dense_left,644.3000000007451,img/object-9_120-levels_1D/object9F0Level33F1Level40.png,q,exemplar_display,74,142322,dense_left,p,4,False,34,-8.0,8.0
sub_03,1,dense_left,605.7999999970198,img/object-9_120-levels_1D/object9F0Level43F1Level40.png,q,exemplar_display,76,144830,dense_left,p,4,False,44,10.0,10.0
sub_03,1,dense_left,679.3000000007451,img/object-9_120-levels_1D/object9F0Level49F1Level40.png,p,exemplar_display,78,147336,dense_left,p,4,True,50,6.0,6.0
sub_03,1,dense_left,647.8000000007451,img/object-9_120-levels_1D/object9F0Level61F1Level40.png,p,exemplar_display,80,149855,dense_left,p,4,True,62,12.0,12.0
sub_03,1,dense_left,723.1000000014901,img/object-9_120-levels_1D/object9F0Level39F1Level40.png,q,exemplar_display,82,152363,dense_left,p,4,False,40,-22.0,22.0
sub_03,1,dense_left,545.5,img/object-9_120-levels_1D/object9F0Level39F1Level40.png,q,exemplar_display,84,154871,dense_left,q,4,True,40,0.0,0.0
sub_03,1,dense_left,,img/object-9_120-levels_1D/object9F0Level61F1Level40.png,,exemplar_display,2,42219,dense_left,p,5,,62,22.0,22.0
sub_03,1,dense_left,1753.8999999985099,img/object-9_120-levels_1D/object9F0Level53F1Level40.png,q,exemplar_display,4,44728,dense_left,p,5,False,54,-8.0,8.0
sub_03,1,dense_left,839.3000000007451,img/object-9_120-levels_1D/object9F0Level67F1Level40.png,q,exemplar_display,6,47235,dense_left,p,5,False,68,14.0,14.0
sub_03,1,dense_left,599.8999999985099,img/object-9_120-levels_1D/object9F0Level53F1Level40.png,p,exemplar_display,8,49744,dense_left,p,5,True,54,-14.0,14.0
sub_03,1,dense_left,674.6999999992549,img/object-9_120-levels_1D/object9F0Level43F1Level40.png,q,exemplar_display,10,52252,dense_left,p,5,False,44,-10.0,10.0
sub_03,1,dense_left,567.5,img/object-9_120-levels_1D/object9F0Level43F1Level40.png,q,exemplar_display,12,54761,dense_left,q,5,True,44,0.0,0.0
sub_03,1,dense_left,762.6000000014901,img/object-9_120-levels_1D/object9F0Level53F1Level40.png,q,exemplar_display,14,57267,dense_left,p,5,False,54,10.0,10.0
sub_03,1,dense_left,645.8999999985099,img/object-9_120-levels_1D/object9F0Level67F1Level40.png,p,exemplar_display,16,59789,dense_left,p,5,True,68,14.0,14.0
sub_03,1,dense_left,664.8999999985099,img/object-9_120-levels_1D/object9F0Level67F1Level40.png,q,exemplar_display,18,62296,dense_left,q,5,True,68,0.0,0.0
sub_03,1,dense_left,586.6999999992549,img/object-9_120-levels_1D/object9F0Level67F1Level40.png,q,exemplar_display,20,64804,dense_left,q,5,True,68,0.0,0.0
sub_03,1,dense_left,987.0,img/object-9_120-levels_1D/object9F0Level55F1Level40.png,p,exemplar_display,22,67309,dense_left,p,5,True,56,-12.0,12.0
sub_03,1,dense_left,741.6000000014901,img/object-9_120-levels_1D/object9F0Level55F1Level40.png,q,exemplar_display,24,69817,dense_left,q,5,True,56,0.0,0.0
sub_03,1,dense_left,896.1999999992549,img/object-9_120-levels_1D/object9F0Level37F1Level40.png,p,exemplar_display,26,72339,dense_left,p,5,True,38,-18.0,18.0
sub_03,1,dense_left,899.0,img/object-9_120-levels_1D/object9F0Level57F1Level40.png,p,exemplar_display,28,74848,dense_left,p,5,True,58,20.0,20.0
sub_03,1,dense_left,619.3000000007451,img/object-9_120-levels_1D/object9F0Level57F1Level40.png,q,exemplar_display,30,77354,dense_left,q,5,True,58,0.0,0.0
sub_03,1,dense_left,657.0,img/object-9_120-levels_1D/object9F0Level57F1Level40.png,q,exemplar_display,32,79859,dense_left,q,5,True,58,0.0,0.0
sub_03,1,dense_left,783.0,img/object-9_120-levels_1D/object9F0Level61F1Level40.png,p,exemplar_display,34,82367,dense_left,p,5,True,62,4.0,4.0
sub_03,1,dense_left,769.4000000022352,img/object-9_120-levels_1D/object9F0Level41F1Level40.png,p,exemplar_display,36,84876,dense_left,p,5,True,42,-20.0,20.0
sub_03,1,dense_left,868.1000000014901,img/object-9_120-levels_1D/object9F0Level61F1Level40.png,p,exemplar_display,38,87383,dense_left,p,5,True,62,20.0,20.0
sub_03,1,dense_left,667.2000000029802,img/object-9_120-levels_1D/object9F0Level39F1Level40.png,p,exemplar_display,40,89889,dense_left,p,5,True,40,-22.0,22.0
sub_03,1,dense_left,578.1999999992549,img/object-9_120-levels_1D/object9F0Level37F1Level40.png,q,exemplar_display,42,92414,dense_left,p,5,False,38,-2.0,2.0
sub_03,1,dense_left,603.8999999985099,img/object-9_120-levels_1D/object9F0Level55F1Level40.png,p,exemplar_display,44,94921,dense_left,p,5,True,56,18.0,18.0
sub_03,1,dense_left,612.1000000014901,img/object-9_120-levels_1D/object9F0Level69F1Level40.png,p,exemplar_display,46,97426,dense_left,p,5,True,70,14.0,14.0
sub_03,1,dense_left,593.4000000022352,img/object-9_120-levels_1D/object9F0Level41F1Level40.png,p,exemplar_display,48,99932,dense_left,p,5,True,42,-28.0,28.0
sub_03,1,dense_left,1300.300000000745,img/object-9_120-levels_1D/object9F0Level33F1Level40.png,q,exemplar_display,50,102439,dense_left,p,5,False,34,-8.0,8.0
sub_03,1,dense_left,508.69999999925494,img/object-9_120-levels_1D/object9F0Level33F1Level40.png,q,exemplar_display,52,104947,dense_left,q,5,True,34,0.0,0.0
sub_03,1,dense_left,535.3999999985099,img/object-9_120-levels_1D/object9F0Level57F1Level40.png,p,exemplar_display,54,107453,dense_left,p,5,True,58,24.0,24.0
sub_03,1,dense_left,792.1000000014901,img/object-9_120-levels_1D/object9F0Level49F1Level40.png,q,exemplar_display,56,109959,dense_left,p,5,False,50,-8.0,8.0
sub_03,1,dense_left,535.6999999992549,img/object-9_120-levels_1D/object9F0Level63F1Level40.png,p,exemplar_display,58,112485,dense_left,p,5,True,64,14.0,14.0
sub_03,1,dense_left,714.7000000029802,img/object-9_120-levels_1D/object9F0Level31F1Level40.png,p,exemplar_display,60,114993,dense_left,p,5,True,32,-32.0,32.0
sub_03,1,dense_left,569.5,img/object-9_120-levels_1D/object9F0Level37F1Level40.png,q,exemplar_display,62,117499,dense_left,p,5,False,38,6.0,6.0
sub_03,1,dense_left,601.6999999992549,img/object-9_120-levels_1D/object9F0Level37F1Level40.png,q,exemplar_display,64,120005,dense_left,q,5,True,38,0.0,0.0
sub_03,1,dense_left,679.8999999985099,img/object-9_120-levels_1D/object9F0Level47F1Level40.png,q,exemplar_display,66,122511,dense_left,p,5,False,48,10.0,10.0
sub_03,1,dense_left,770.8999999985099,img/object-9_120-levels_1D/object9F0Level59F1Level40.png,p,exemplar_display,68,125017,dense_left,p,5,True,60,12.0,12.0
sub_03,1,dense_left,602.5,img/object-9_120-levels_1D/object9F0Level55F1Level40.png,q,exemplar_display,70,127523,dense_left,p,5,False,56,-4.0,4.0
sub_03,1,dense_left,713.8000000007451,img/object-9_120-levels_1D/object9F0Level69F1Level40.png,p,exemplar_display,72,130031,dense_left,p,5,True,70,14.0,14.0
sub_03,1,dense_left,659.3999999985099,img/object-9_120-levels_1D/object9F0Level67F1Level40.png,q,exemplar_display,74,132545,dense_left,p,5,False,68,-2.0,2.0
sub_03,1,dense_left,701.5,img/object-9_120-levels_1D/object9F0Level47F1Level40.png,p,exemplar_display,76,135053,dense_left,p,5,True,48,-20.0,20.0
sub_03,1,dense_left,1223.8999999985099,img/object-9_120-levels_1D/object9F0Level57F1Level40.png,q,exemplar_display,78,137559,dense_left,p,5,False,58,10.0,10.0
sub_03,1,dense_left,579.3999999985099,img/object-9_120-levels_1D/object9F0Level57F1Level40.png,q,exemplar_display,80,140066,dense_left,q,5,True,58,0.0,0.0
sub_03,1,dense_left,769.6000000014901,img/object-9_120-levels_1D/object9F0Level47F1Level40.png,q,exemplar_display,82,142572,dense_left,p,5,False,48,-10.0,10.0
sub_03,1,dense_left,1264.5,img/object-9_120-levels_1D/object9F0Level39F1Level40.png,p,exemplar_display,84,145080,dense_left,p,5,True,40,-8.0,8.0
sub_04,1,dense_right,2843.2999999988824,img/object-9_120-levels_1D/object9F0Level95F1Level40.png,q,exemplar_display,2,15849,dense_right,,1,,96,,
sub_04,1,dense_right,1138.0,img/object-9_120-levels_1D/object9F0Level117F1Level40.png,q,exemplar_display,4,18374,dense_right,p,1,False,118,22.0,22.0
sub_04,1,dense_right,911.0,img/object-9_120-levels_1D/object9F0Level91F1Level40.png,p,exemplar_display,6,20901,dense_right,p,1,True,92,-26.0,26.0
sub_04,1,dense_right,1165.0999999996275,img/object-9_120-levels_1D/object9F0Level99F1Level40.png,q,exemplar_display,8,23414,dense_right,p,1,False,100,8.0,8.0
sub_04,1,dense_right,957.5,img/object-9_120-levels_1D/object9F0Level79F1Level40.png,p,exemplar_display,10,25945,dense_right,p,1,True,80,-20.0,20.0
sub_04,1,dense_right,1694.0999999996275,img/object-9_120-levels_1D/object9F0Level87F1Level40.png,p,exemplar_display,12,28472,dense_right,p,1,True,88,8.0,8.0
sub_04,1,dense_right,861.5,img/object-9_120-levels_1D/object9F0Level115F1Level40.png,q,exemplar_display,14,30987,dense_right,p,1,False,116,28.0,28.0
sub_04,1,dense_right,1286.699999999255,img/object-9_120-levels_1D/object9F0Level105F1Level40.png,q,exemplar_display,16,33491,dense_right,p,1,False,106,-10.0,10.0
sub_04,1,dense_right,942.6999999992549,img/object-9_120-levels_1D/object9F0Level93F1Level40.png,q,exemplar_display,18,35995,dense_right,p,1,False,94,-12.0,12.0
sub_04,1,dense_right,887.2999999988824,img/object-9_120-levels_1D/object9F0Level93F1Level40.png,q,exemplar_display,20,38499,dense_right,q,1,True,94,0.0,0.0
sub_04,1,dense_right,1040.5999999996275,img/object-9_120-levels_1D/object9F0Level107F1Level40.png,p,exemplar_display,22,41002,dense_right,p,1,True,108,14.0,14.0
sub_04,1,dense_right,1192.699999999255,img/object-9_120-levels_1D/object9F0Level99F1Level40.png,q,exemplar_display,24,43505,dense_right,p,1,False,100,-8.0,8.0
sub_04,1,dense_right,1169.5999999996275,img/object-9_120-levels_1D/object9F0Level89F1Level40.png,p,exemplar_display,26,46008,dense_right,p,1,True,90,-10.0,10.0
sub_04,1,dense_right,1018.9000000003725,img/object-9_120-levels_1D/object9F0Level89F1Level40.png,p,exemplar_display,28,48511,dense_right,q,1,False,90,0.0,0.0
sub_04,1,dense_right,1323.699999999255,img/object-9_120-levels_1D/object9F0Level95F1Level40.png,p,exemplar_display,30,51022,dense_right,p,1,True,96,6.0,6.0
sub_04,1,dense_right,1060.7999999988824,img/object-9_120-levels_1D/object9F0Level95F1Level40.png,q,exemplar_display,32,53525,dense_right,q,1,True,96,0.0,0.0
sub_04,1,dense_right,1533.9000000003725,img/object-9_120-levels_1D/object9F0Level91F1Level40.png,q,exemplar_display,34,56028,dense_right,p,1,False,92,-4.0,4.0
