prolific_id,rt,stimulus,response,trial_stage,trial_index,time_elapsed,cb_condition,correct_response,session,correct,stim_val,dist_from_prev,dist_abs_from_prev
selftest,,img/object-9_120-levels_1D/object9F0Level111F1Level40.png,,exemplar_display,2,4161,dense_right,,1,,111,,
selftest,1684.2999999523163,img/object-9_120-levels_1D/object9F0Level87F1Level40.png,p,exemplar_display,4,6684,dense_right,p,1,True,87,-24.0,24.0
selftest,926.6000000238419,img/object-9_120-levels_1D/object9F0Level83F1Level40.png,p,exemplar_display,6,9210,dense_right,p,1,True,83,-4.0,4.0
selftest,1705.0,img/object-9_120-levels_1D/object9F0Level85F1Level40.png,q,exemplar_display,8,11734,dense_right,p,1,False,85,2.0,2.0
selftest,1385.1000000238419,img/object-9_120-levels_1D/object9F0Level105F1Level40.png,p,exemplar_display,10,14259,dense_right,p,1,True,105,20.0,20.0
selftest,1467.5,img/object-9_120-levels_1D/object9F0Level93F1Level40.png,p,exemplar_display,12,16784,dense_right,p,1,True,93,-12.0,12.0
selftest,538.3000000715256,img/object-9_120-levels_1D/object9F0Level101F1Level40.png,p,exemplar_display,14,19314,dense_right,p,1,True,101,8.0,8.0
selftest,966.1999999284744,img/object-9_120-levels_1D/object9F0Level89F1Level40.png,p,exemplar_display,16,21835,dense_right,p,1,True,89,-12.0,12.0
selftest,936.8999999761581,img/object-9_120-levels_1D/object9F0Level115F1Level40.png,p,exemplar_display,18,24364,dense_right,p,1,True,115,26.0,26.0
selftest,2268.100000023842,img/object-9_120-levels_1D/object9F0Level101F1Level40.png,q,exemplar_display,20,27147,dense_right,p,1,False,101,-14.0,14.0
selftest,688.5,img/object-9_120-levels_1D/object9F0Level111F1Level40.png,q,exemplar_display,22,29670,dense_right,p,1,False,111,10.0,10.0
selftest,725.0,img/object-9_120-levels_1D/object9F0Level85F1Level40.png,p,exemplar_display,24,32174,dense_right,p,1,True,85,-26.0,26.0
selftest,1875.0,img/object-9_120-levels_1D/object9F0Level95F1Level40.png,p,exemplar_display,26,34681,dense_right,p,1,True,95,10.0,10.0
selftest,1119.0,img/object-9_120-levels_1D/object9F0Level101F1Level40.png,q,exemplar_display,28,37187,dense_right,p,1,False,101,6.0,6.0
selftest,826.6000000238419,img/object-9_120-levels_1D/object9F0Level97F1Level40.png,p,exemplar_display,30,39695,dense_right,p,1,True,97,-4.0,4.0
selftest,1716.1999999284744,img/object-9_120-levels_1D/object9F0Level97F1Level40.png,p,exemplar_display,32,42199,dense_right,q,1,False,97,0.0,0.0
selftest,1994.6999999284744,img/object-9_120-levels_1D/object9F0Level91F1Level40.png,p,exemplar_display,34,44704,dense_right,p,1,True,91,-6.0,6.0
selftest,979.0,img/object-9_120-levels_1D/object9F0Level101F1Level40.png,p,exemplar_display,36,47208,dense_right,p,1,True,101,10.0,10.0
selftest,1703.7999999523163,img/object-9_120-levels_1D/object9F0Level101F1Level40.png,p,exemplar_display,38,49726,dense_right,q,1,False,101,0.0,0.0
selftest,2417.899999976158,img/object-9_120-levels_1D/object9F0Level91F1Level40.png,p,exemplar_display,40,52649,dense_right,p,1,True,91,-10.0,10.0
selftest,1145.5,img/object-9_120-levels_1D/object9F0Level81F1Level40.png,p,exemplar_display,42,55160,dense_right,p,1,True,81,-10.0,10.0
selftest,873.1000000238419,img/object-9_120-levels_1D/object9F0Level115F1Level40.png,p,exemplar_display,44,57665,dense_right,p,1,True,115,34.0,34.0
selftest,664.0,img/object-9_120-levels_1D/object9F0Level85F1Level40.png,p,exemplar_display,46,60170,dense_right,p,1,True,85,-30.0,30.0
selftest,,img/object-9_120-levels_1D/object9F0Level85F1Level40.png,,exemplar_display,48,63674,dense_right,q,1,False,85,0.0,0.0
selftest,1198.6000000238419,img/object-9_120-levels_1D/object9F0Level91F1Level40.png,p,exemplar_display,50,66179,dense_right,p,1,True,91,6.0,6.0
selftest,1213.3999999761581,img/object-9_120-levels_1D/object9F0Level91F1Level40.png,p,exemplar_display,52,68685,dense_right,q,1,False,91,0.0,0.0
selftest,1173.2000000476837,img/object-9_120-levels_1D/object9F0Level117F1Level40.png,p,exemplar_display,54,71189,dense_right,p,1,True,117,26.0,26.0
selftest,831.2999999523163,img/object-9_120-levels_1D/object9F0Level97F1Level40.png,p,exemplar_display,56,73715,dense_right,p,1,True,97,-20.0,20.0
selftest,2485.899999976158,img/object-9_120-levels_1D/object9F0Level103F1Level40.png,q,exemplar_display,58,76705,dense_right,p,1,False,103,6.0,6.0
selftest,1278.8000000715256,img/object-9_120-levels_1D/object9F0Level103F1Level40.png,q,exemplar_display,60,79211,dense_right,q,1,True,103,0.0,0.0
selftest,1235.5,img/object-9_120-levels_1D/object9F0Level83F1Level40.png,p,exemplar_display,62,81718,dense_right,p,1,True,83,-20.0,20.0
selftest,901.0,img/object-9_120-levels_1D/object9F0Level115F1Level40.png,p,exemplar_display,64,84222,dense_right,p,1,True,115,32.0,32.0
selftest,2137.1999999284744,img/object-9_120-levels_1D/object9F0Level99F1Level40.png,q,exemplar_display,66,86865,dense_right,p,1,False,99,-16.0,16.0
selftest,2033.1000000238419,img/object-9_120-levels_1D/object9F0Level99F1Level40.png,p,exemplar_display,68,89402,dense_right,q,1,False,99,0.0,0.0
selftest,1967.5,img/object-9_120-levels_1D/object9F0Level95F1Level40.png,q,exemplar_display,70,91908,dense_right,p,1,False,95,-4.0,4.0
selftest,1860.1000000238419,img/object-9_120-levels_1D/object9F0Level105F1Level40.png,q,exemplar_display,72,94430,dense_right,p,1,False,105,10.0,10.0
selftest,786.1999999284744,img/object-9_120-levels_1D/object9F0Level89F1Level40.png,p,exemplar_display,74,96936,dense_right,p,1,True,89,-16.0,16.0
selftest,2424.0999999046326,img/object-9_120-levels_1D/object9F0Level103F1Level40.png,p,exemplar_display,76,99865,dense_right,p,1,True,103,14.0,14.0
selftest,1859.8999999761581,img/object-9_120-levels_1D/object9F0Level103F1Level40.png,q,exemplar_display,78,102373,dense_right,q,1,True,103,0.0,0.0
selftest,2211.8000000715256,img/object-9_120-levels_1D/object9F0Level111F1Level40.png,q,exemplar_display,80,105090,dense_right,p,1,False,111,8.0,8.0
selftest,2743.7000000476837,img/object-9_120-levels_1D/object9F0Level105F1Level40.png,q,exemplar_display,82,108336,dense_right,p,1,False,105,-6.0,6.0
selftest,1746.5,img/object-9_120-levels_1D/object9F0Level109F1Level40.png,q,exemplar_display,84,110841,dense_right,p,1,False,109,4.0,4.0
selftest,,img/object-9_120-levels_1D/object9F0Level89F1Level40.png,,exemplar_display,2,4140,dense_right,p,2,,89,-20.0,20.0
selftest,922.2999999523163,img/object-9_120-levels_1D/object9F0Level103F1Level40.png,p,exemplar_display,4,6670,dense_right,p,2,True,103,14.0,14.0
selftest,771.2000000476837,img/object-9_120-levels_1D/object9F0Level85F1Level40.png,p,exemplar_display,6,9187,dense_right,p,2,True,85,-18.0,18.0
selftest,706.2000000476837,img/object-9_120-levels_1D/object9F0Level117F1Level40.png,p,exemplar_display,8,11715,dense_right,p,2,True,117,32.0,32.0
selftest,1089.4000000953674,img/object-9_120-levels_1D/object9F0Level77F1Level40.png,p,exemplar_display,10,14241,dense_right,p,2,True,77,-40.0,40.0
selftest,1332.2999999523163,img/object-9_120-levels_1D/object9F0Level77F1Level40.png,q,exemplar_display,12,16763,dense_right,q,2,True,77,0.0,0.0
selftest,680.3999999761581,img/object-9_120-levels_1D/object9F0Level87F1Level40.png,p,exemplar_display,14,19289,dense_right,p,2,True,87,10.0,10.0
selftest,1544.6000000238419,img/object-9_120-levels_1D/object9F0Level91F1Level40.png,q,exemplar_display,16,21816,dense_right,p,2,False,91,4.0,4.0
selftest,1261.2000000476837,img/object-9_120-levels_1D/object9F0Level79F1Level40.png,p,exemplar_display,18,24343,dense_right,p,2,True,79,-12.0,12.0
selftest,1616.7000000476837,img/object-9_120-levels_1D/object9F0Level113F1Level40.png,p,exemplar_display,20,26856,dense_right,p,2,True,113,34.0,34.0
selftest,1181.6000000238419,img/object-9_120-levels_1D/object9F0Level79F1Level40.png,p,exemplar_display,22,29382,dense_right,p,2,True,79,-34.0,34.0
selftest,973.1000000238419,img/object-9_120-levels_1D/object9F0Level107F1Level40.png,p,exemplar_display,24,31885,dense_right,p,2,True,107,28.0,28.0
selftest,836.2000000476837,img/object-9_120-levels_1D/object9F0Level107F1Level40.png,q,exemplar_display,26,34390,dense_right,q,2,True,107,0.0,0.0
selftest,690.3999999761581,img/object-9_120-levels_1D/object9F0Level81F1Level40.png,p,exemplar_display,28,36895,dense_right,p,2,True,81,-26.0,26.0
selftest,2114.7999999523163,img/object-9_120-levels_1D/object9F0Level95F1Level40.png,q,exemplar_display,30,39513,dense_right,p,2,False,95,14.0,14.0
selftest,1662.1999999284744,img/object-9_120-levels_1D/object9F0Level89F1Level40.png,p,exemplar_display,32,42020,dense_right,p,2,True,89,-6.0,6.0
selftest,1676.8000000715256,img/object-9_120-levels_1D/object9F0Level89F1Level40.png,p,exemplar_display,34,44525,dense_right,q,2,False,89,0.0,0.0
selftest,853.0,img/object-9_120-levels_1D/object9F0Level115F1Level40.png,p,exemplar_display,36,47028,dense_right,p,2,True,115,26.0,26.0
selftest,683.3000000715256,img/object-9_120-levels_1D/object9F0Level101F1Level40.png,p,exemplar_display,38,49535,dense_right,p,2,True,101,-14.0,14.0
selftest,526.7999999523163,img/object-9_120-levels_1D/object9F0Level97F1Level40.png,p,exemplar_display,40,52044,dense_right,p,2,True,97,-4.0,4.0
selftest,547.9000000953674,img/object-9_120-levels_1D/object9F0Level89F1Level40.png,p,exemplar_display,42,54550,dense_right,p,2,True,89,-8.0,8.0
selftest,1403.0,img/object-9_120-levels_1D/object9F0Level105F1Level40.png,p,exemplar_display,44,57055,dense_right,p,2,True,105,16.0,16.0
selftest,1058.2999999523163,img/object-9_120-levels_1D/object9F0Level105F1Level40.png,q,exemplar_display,46,59559,dense_right,q,2,True,105,0.0,0.0
selftest,644.3999999761581,img/object-9_120-levels_1D/object9F0Level89F1Level40.png,p,exemplar_display,48,62063,dense_right,p,2,True,89,-16.0,16.0
selftest,2153.7000000476837,img/object-9_120-levels_1D/object9F0Level99F1Level40.png,q,exemplar_display,50,64721,dense_right,p,2,False,99,10.0,10.0
selftest,2038.2000000476837,img/object-9_120-levels_1D/object9F0Level91F1Level40.png,p,exemplar_display,52,67264,dense_right,p,2,True,91,-8.0,8.0
selftest,1271.7000000476837,img/object-9_120-levels_1D/object9F0Level93F1Level40.png,p,exemplar_display,54,69770,dense_right,p,2,True,93,2.0,2.0
selftest,1717.8999999761581,img/object-9_120-levels_1D/object9F0Level87F1Level40.png,q,exemplar_display,56,72291,dense_right,p,2,False,87,-6.0,6.0
selftest,950.7000000476837,img/object-9_120-levels_1D/object9F0Level105F1Level40.png,p,exemplar_display,58,74794,dense_right,p,2,True,105,18.0,18.0
selftest,1156.4000000953674,img/object-9_120-levels_1D/object9F0Level115F1Level40.png,p,exemplar_display,60,77301,dense_right,p,2,True,115,10.0,10.0
selftest,1258.7999999523163,img/object-9_120-levels_1D/object9F0Level115F1Level40.png,q,exemplar_display,62,79807,dense_right,q,2,True,115,0.0,0.0
selftest,953.8000000715256,img/object-9_120-levels_1D/object9F0Level79F1Level40.png,p,exemplar_display,64,82313,dense_right,p,2,True,79,-36.0,36.0
selftest,2103.7000000476837,img/object-9_120-levels_1D/object9F0Level117F1Level40.png,p,exemplar_display,66,84922,dense_right,p,2,True,117,38.0,38.0
selftest,958.6000000238419,img/object-9_120-levels_1D/object9F0Level107F1Level40.png,q,exemplar_display,68,87427,dense_right,p,2,False,107,-10.0,10.0
selftest,830.5,img/object-9_120-levels_1D/object9F0Level109F1Level40.png,q,exemplar_display,70,89932,dense_right,p,2,False,109,2.0,2.0
selftest,549.1000000238419,img/object-9_120-levels_1D/object9F0Level87F1Level40.png,p,exemplar_display,72,92436,dense_right,p,2,True,87,-22.0,22.0
selftest,1188.3999999761581,img/object-9_120-levels_1D/object9F0Level97F1Level40.png,p,exemplar_display,74,94943,dense_right,p,2,True,97,10.0,10.0
selftest,1150.8999999761581,img/object-9_120-levels_1D/object9F0Level85F1Level40.png,p,exemplar_display,76,97451,dense_right,p,2,True,85,-12.0,12.0
selftest,548.1999999284744,img/object-9_120-levels_1D/object9F0Level117F1Level40.png,p,exemplar_display,78,99957,dense_right,p,2,True,117,32.0,32.0
selftest,1932.0,img/object-9_120-levels_1D/object9F0Level111F1Level40.png,q,exemplar_display,80,102462,dense_right,p,2,False,111,-6.0,6.0
selftest,545.5,img/object-9_120-levels_1D/object9F0Level81F1Level40.png,p,exemplar_display,82,104968,dense_right,p,2,True,81,-30.0,30.0
selftest,1944.6000000238419,img/object-9_120-levels_1D/object9F0Level107F1Level40.png,p,exemplar_display,84,107473,dense_right,p,2,True,107,26.0,26.0
selftest,,img/object-9_120-levels_1D/object9F0Level97F1Level40.png,,exemplar_display,2,4147,dense_right,p,3,,97,-10.0,10.0
selftest,1823.7000000476837,img/object-9_120-levels_1D/object9F0Level99F1Level40.png,p,exemplar_display,4,6679,dense_right,p,3,True,99,2.0,2.0
selftest,1442.8999999761581,img/object-9_120-levels_1D/object9F0Level81F1Level40.png,p,exemplar_display,6,9199,dense_right,p,3,True,81,-18.0,18.0
selftest,669.0,img/object-9_120-levels_1D/object9F0Level103F1Level40.png,p,exemplar_display,8,11724,dense_right,p,3,True,103,22.0,22.0
selftest,1288.8000000715256,img/object-9_120-levels_1D/object9F0Level85F1Level40.png,q,exemplar_display,10,14251,dense_right,p,3,False,85,-18.0,18.0
selftest,700.6000000238419,img/object-9_120-levels_1D/object9F0Level77F1Level40.png,p,exemplar_display,12,16781,dense_right,p,3,True,77,-8.0,8.0
selftest,1308.8000000715256,img/object-9_120-levels_1D/object9F0Level95F1Level40.png,p,exemplar_display,14,19308,dense_right,p,3,True,95,18.0,18.0
selftest,1702.2000000476837,img/object-9_120-levels_1D/object9F0Level95F1Level40.png,q,exemplar_display,16,21836,dense_right,q,3,True,95,0.0,0.0
selftest,927.3999999761581,img/object-9_120-levels_1D/object9F0Level107F1Level40.png,q,exemplar_display,18,24361,dense_right,p,3,False,107,12.0,12.0
selftest,810.9000000953674,img/object-9_120-levels_1D/object9F0Level115F1Level40.png,q,exemplar_display,20,26887,dense_right,p,3,False,115,8.0,8.0
selftest,589.1000000238419,img/object-9_120-levels_1D/object9F0Level79F1Level40.png,p,exemplar_display,22,29408,dense_right,p,3,True,79,-36.0,36.0
selftest,964.6999999284744,img/object-9_120-levels_1D/object9F0Level107F1Level40.png,p,exemplar_display,24,31915,dense_right,p,3,True,107,28.0,28.0
selftest,932.1000000238419,img/object-9_120-levels_1D/object9F0Level87F1Level40.png,p,exemplar_display,26,34419,dense_right,p,3,True,87,-20.0,20.0
selftest,964.7000000476837,img/object-9_120-levels_1D/object9F0Level91F1Level40.png,q,exemplar_display,28,36922,dense_right,p,3,False,91,4.0,4.0
selftest,604.3999999761581,img/object-9_120-levels_1D/object9F0Level77F1Level40.png,p,exemplar_display,30,39426,dense_right,p,3,True,77,-14.0,14.0
selftest,2466.6999999284744,img/object-9_120-levels_1D/object9F0Level103F1Level40.png,p,exemplar_display,32,42398,dense_right,p,3,True,103,26.0,26.0
selftest,1209.3999999761581,img/object-9_120-levels_1D/object9F0Level99F1Level40.png,p,exemplar_display,34,44902,dense_right,p,3,True,99,-4.0,4.0
selftest,1488.3000000715256,img/object-9_120-levels_1D/object9F0Level103F1Level40.png,q,exemplar_display,36,47408,dense_right,p,3,False,103,4.0,4.0
selftest,1084.5,img/object-9_120-levels_1D/object9F0Level117F1Level40.png,p,exemplar_display,38,49915,dense_right,p,3,True,117,14.0,14.0
selftest,755.7000000476837,img/object-9_120-levels_1D/object9F0Level81F1Level40.png,p,exemplar_display,40,52420,dense_right,p,3,True,81,-36.0,36.0
selftest,1183.8999999761581,img/object-9_120-levels_1D/object9F0Level83F1Level40.png,p,exemplar_display,42,54927,dense_right,p,3,True,83,2.0,2.0
selftest,1245.5,img/object-9_120-levels_1D/object9F0Level83F1Level40.png,q,exemplar_display,44,57433,dense_right,q,3,True,83,0.0,0.0
selftest,709.3999999761581,img/object-9_120-levels_1D/object9F0Level101F1Level40.png,p,exemplar_display,46,59937,dense_right,p,3,True,101,18.0,18.0
selftest,1502.2999999523163,img/object-9_120-levels_1D/object9F0Level105F1Level40.png,q,exemplar_display,48,62441,dense_right,p,3,False,105,4.0,4.0
selftest,1947.5999999046326,img/object-9_120-levels_1D/object9F0Level105F1Level40.png,q,exemplar_display,50,64947,dense_right,q,3,True,105,0.0,0.0
selftest,834.0,img/object-9_120-levels_1D/object9F0Level77F1Level40.png,p,exemplar_display,52,67453,dense_right,p,3,True,77,-28.0,28.0
selftest,802.1999999284744,img/object-9_120-levels_1D/object9F0Level115F1Level40.png,p,exemplar_display,54,69957,dense_right,p,3,True,115,38.0,38.0
selftest,759.2999999523163,img/object-9_120-levels_1D/object9F0Level115F1Level40.png,q,exemplar_display,56,72464,dense_right,q,3,True,115,0.0,0.0
selftest,631.6000000238419,img/object-9_120-levels_1D/object9F0Level77F1Level40.png,p,exemplar_display,58,74976,dense_right,p,3,True,77,-38.0,38.0
selftest,1673.8000000715256,img/object-9_120-levels_1D/object9F0Level101F1Level40.png,p,exemplar_display,60,77485,dense_right,p,3,True,101,24.0,24.0
selftest,1000.8999999761581,img/object-9_120-levels_1D/object9F0Level111F1Level40.png,p,exemplar_display,62,79990,dense_right,p,3,True,111,10.0,10.0
selftest,489.39999997615814,img/object-9_120-levels_1D/object9F0Level111F1Level40.png,p,exemplar_display,64,82495,dense_right,q,3,False,111,0.0,0.0
selftest,1024.2999999523163,img/object-9_120-levels_1D/object9F0Level101F1Level40.png,q,exemplar_display,66,85000,dense_right,p,3,False,101,-10.0,10.0
selftest,2150.5,img/object-9_120-levels_1D/object9F0Level113F1Level40.png,p,exemplar_display,68,87654,dense_right,p,3,True,113,12.0,12.0
selftest,906.5,img/object-9_120-levels_1D/object9F0Level101F1Level40.png,p,exemplar_display,70,90157,dense_right,p,3,True,101,-12.0,12.0
selftest,1111.0,img/object-9_120-levels_1D/object9F0Level111F1Level40.png,q,exemplar_display,72,92663,dense_right,p,3,False,111,10.0,10.0
selftest,877.5,img/object-9_120-levels_1D/object9F0Level113F1Level40.png,q,exemplar_display,74,95168,dense_right,p,3,False,113,2.0,2.0
selftest,1318.9000000953674,img/object-9_120-levels_1D/object9F0Level103F1Level40.png,q,exemplar_display,76,97672,dense_right,p,3,False,103,-10.0,10.0
selftest,2768.7999999523163,img/object-9_120-levels_1D/object9F0Level99F1Level40.png,q,exemplar_display,78,100944,dense_right,p,3,False,99,-4.0,4.0
selftest,604.4000000953674,img/object-9_120-levels_1D/object9F0Level77F1Level40.png,p,exemplar_display,80,103459,dense_right,p,3,True,77,-22.0,22.0
selftest,1555.6000000238419,img/object-9_120-levels_1D/object9F0Level89F1Level40.png,p,exemplar_display,82,105965,dense_right,p,3,True,89,12.0,12.0
selftest,961.5,img/object-9_120-levels_1D/object9F0Level97F1Level40.png,q,exemplar_display,84,108469,dense_right,p,3,False,97,8.0,8.0
selftest,,img/object-9_120-levels_1D/object9F0Level97F1Level40.png,,exemplar_display,2,4156,dense_right,q,4,,97,0.0,0.0
selftest,1031.5,img/object-9_120-levels_1D/object9F0Level79F1Level40.png,p,exemplar_display,4,6678,dense_right,p,4,True,79,-18.0,18.0
selftest,957.6999999284744,img/object-9_120-levels_1D/object9F0Level83F1Level40.png,q,exemplar_display,6,9199,dense_right,p,4,False,83,4.0,4.0
selftest,541.4000000953674,img/object-9_120-levels_1D/object9F0Level113F1Level40.png,p,exemplar_display,8,11719,dense_right,p,4,True,113,30.0,30.0
selftest,599.6999999284744,img/object-9_120-levels_1D/object9F0Level109F1Level40.png,p,exemplar_display,10,14244,dense_right,p,4,True,109,-4.0,4.0
selftest,1354.5,img/object-9_120-levels_1D/object9F0Level95F1Level40.png,p,exemplar_display,12,16761,dense_right,p,4,True,95,-14.0,14.0
selftest,656.8000000715256,img/object-9_120-levels_1D/object9F0Level81F1Level40.png,p,exemplar_display,14,19286,dense_right,p,4,True,81,-14.0,14.0
selftest,624.5,img/object-9_120-levels_1D/object9F0Level113F1Level40.png,p,exemplar_display,16,21805,dense_right,p,4,True,113,32.0,32.0
selftest,668.8999999761581,img/object-9_120-levels_1D/object9F0Level91F1Level40.png,p,exemplar_display,18,24328,dense_right,p,4,True,91,-22.0,22.0
selftest,1408.5,img/object-9_120-levels_1D/object9F0Level105F1Level40.png,q,exemplar_display,20,26847,dense_right,p,4,False,105,14.0,14.0
selftest,601.7000000476837,img/object-9_120-levels_1D/object9F0Level113F1Level40.png,p,exemplar_display,22,29379,dense_right,p,4,True,113,8.0,8.0
selftest,690.1999999284744,img/object-9_120-levels_1D/object9F0Level93F1Level40.png,p,exemplar_display,24,31885,dense_right,p,4,True,93,-20.0,20.0
selftest,2440.2999999523163,img/object-9_120-levels_1D/object9F0Level87F1Level40.png,p,exemplar_display,26,34832,dense_right,p,4,True,87,-6.0,6.0
selftest,1228.6000000238419,img/object-9_120-levels_1D/object9F0Level87F1Level40.png,p,exemplar_display,28,37337,dense_right,q,4,False,87,0.0,0.0
selftest,831.1000000238419,img/object-9_120-levels_1D/object9F0Level79F1Level40.png,p,exemplar_display,30,39839,dense_right,p,4,True,79,-8.0,8.0
selftest,638.8999999761581,img/object-9_120-levels_1D/object9F0Level107F1Level40.png,p,exemplar_display,32,42345,dense_right,p,4,True,107,28.0,28.0
selftest,1225.1999999284744,img/object-9_120-levels_1D/object9F0Level91F1Level40.png,p,exemplar_display,34,44878,dense_right,p,4,True,91,-16.0,16.0
selftest,1367.6999999284744,img/object-9_120-levels_1D/object9F0Level85F1Level40.png,q,exemplar_display,36,47383,dense_right,p,4,False,85,-6.0,6.0
selftest,526.1999999284744,img/object-9_120-levels_1D/object9F0Level99F1Level40.png,p,exemplar_display,38,49889,dense_right,p,4,True,99,14.0,14.0
selftest,1274.0,img/object-9_120-levels_1D/object9F0Level81F1Level40.png,p,exemplar_display,40,52399,dense_right,p,4,True,81,-18.0,18.0
selftest,695.2000000476837,img/object-9_120-levels_1D/object9F0Level81F1Level40.png,q,exemplar_display,42,54905,dense_right,q,4,True,81,0.0,0.0
selftest,867.8999999761581,img/object-9_120-levels_1D/object9F0Level97F1Level40.png,p,exemplar_display,44,57410,dense_right,p,4,True,97,16.0,16.0
selftest,635.6000000238419,img/object-9_120-levels_1D/object9F0Level109F1Level40.png,p,exemplar_display,46,59916,dense_right,p,4,True,109,12.0,12.0
selftest,1433.7000000476837,img/object-9_120-levels_1D/object9F0Level117F1Level40.png,p,exemplar_display,48,62421,dense_right,p,4,True,117,8.0,8.0
selftest,1040.1000000238419,img/object-9_120-levels_1D/object9F0Level117F1Level40.png,p,exemplar_display,50,64925,dense_right,q,4,False,117,0.0,0.0
selftest,1496.5,img/object-9_120-levels_1D/object9F0Level93F1Level40.png,p,exemplar_display,52,67431,dense_right,p,4,True,93,-24.0,24.0
selftest,,img/object-9_120-levels_1D/object9F0Level99F1Level40.png,,exemplar_display,54,70936,dense_right,p,4,False,99,6.0,6.0
selftest,774.3000000715256,img/object-9_120-levels_1D/object9F0Level81F1Level40.png,p,exemplar_display,56,73441,dense_right,p,4,True,81,-18.0,18.0
selftest,540.3000000715256,img/object-9_120-levels_1D/object9F0Level113F1Level40.png,p,exemplar_display,58,75953,dense_right,p,4,True,113,32.0,32.0
selftest,1011.0,img/object-9_120-levels_1D/object9F0Level113F1Level40.png,p,exemplar_display,60,78459,dense_right,q,4,False,113,0.0,0.0
selftest,1210.8999999761581,img/object-9_120-levels_1D/object9F0Level83F1Level40.png,p,exemplar_display,62,80964,dense_right,p,4,True,83,-30.0,30.0
selftest,952.0999999046326,img/object-9_120-levels_1D/object9F0Level83F1Level40.png,p,exemplar_display,64,83469,dense_right,q,4,False,83,0.0,0.0
selftest,744.1000000238419,img/object-9_120-levels_1D/object9F0Level81F1Level40.png,p,exemplar_display,66,85974,dense_right,p,4,True,81,-2.0,2.0
selftest,1590.3999999761581,img/object-9_120-levels_1D/object9F0Level77F1Level40.png,q,exemplar_display,68,88480,dense_right,p,4,False,77,-4.0,4.0
selftest,694.0,img/object-9_120-levels_1D/object9F0Level99F1Level40.png,p,exemplar_display,70,90984,dense_right,p,4,True,99,22.0,22.0
selftest,778.8999999761581,img/object-9_120-levels_1D/object9F0Level99F1Level40.png,q,exemplar_display,72,93492,dense_right,q,4,True,99,0.0,0.0
selftest,1496.1000000238419,img/object-9_120-levels_1D/object9F0Level109F1Level40.png,q,exemplar_display,74,96010,dense_right,p,4,False,109,10.0,10.0
selftest,1008.1000000238419,img/object-9_120-levels_1D/object9F0Level111F1Level40.png,q,exemplar_display,76,98518,dense_right,p,4,False,111,2.0,2.0
selftest,511.8000000715256,img/object-9_120-levels_1D/object9F0Level77F1Level40.png,p,exemplar_display,78,101031,dense_right,p,4,True,77,-34.0,34.0
selftest,678.5,img/object-9_120-levels_1D/object9F0Level103F1Level40.png,p,exemplar_display,80,103536,dense_right,p,4,True,103,26.0,26.0
selftest,1524.1000000238419,img/object-9_120-levels_1D/object9F0Level95F1Level40.png,p,exemplar_display,82,106043,dense_right,p,4,True,95,-8.0,8.0
selftest,600.6999999284744,img/object-9_120-levels_1D/object9F0Level93F1Level40.png,p,exemplar_display,84,108549,dense_right,p,4,True,93,-2.0,2.0
selftest,,img/object-9_120-levels_1D/object9F0Level93F1Level40.png,,exemplar_display,2,4155,dense_right,q,5,,93,0.0,0.0
selftest,1222.6000000238419,img/object-9_120-levels_1D/object9F0Level115F1Level40.png,p,exemplar_display,4,6674,dense_right,p,5,True,115,22.0,22.0
selftest,1125.0,img/object-9_120-levels_1D/object9F0Level117F1Level40.png,p,exemplar_display,6,9192,dense_right,p,5,True,117,2.0,2.0
selftest,1776.5,img/object-9_120-levels_1D/object9F0Level109F1Level40.png,q,exemplar_display,8,11710,dense_right,p,5,False,109,-8.0,8.0
selftest,727.3999999761581,img/object-9_120-levels_1D/object9F0Level109F1Level40.png,q,exemplar_display,10,14236,dense_right,q,5,True,109,0.0,0.0
selftest,1539.7000000476837,img/object-9_120-levels_1D/object9F0Level97F1Level40.png,p,exemplar_display,12,16758,dense_right,p,5,True,97,-12.0,12.0
selftest,1247.7000000476837,img/object-9_120-levels_1D/object9F0Level107F1Level40.png,p,exemplar_display,14,19282,dense_right,p,5,True,107,10.0,10.0
selftest,1802.3999999761581,img/object-9_120-levels_1D/object9F0Level109F1Level40.png,q,exemplar_display,16,21797,dense_right,p,5,False,109,2.0,2.0
selftest,1240.5999999046326,img/object-9_120-levels_1D/object9F0Level113F1Level40.png,q,exemplar_display,18,24322,dense_right,p,5,False,113,4.0,4.0
selftest,1195.6999999284744,img/object-9_120-levels_1D/object9F0Level113F1Level40.png,p,exemplar_display,20,26844,dense_right,q,5,False,113,0.0,0.0
selftest,2364.7999999523163,img/object-9_120-levels_1D/object9F0Level109F1Level40.png,p,exemplar_display,22,29725,dense_right,p,5,True,109,-4.0,4.0
selftest,942.0,img/object-9_120-levels_1D/object9F0Level85F1Level40.png,p,exemplar_display,24,32231,dense_right,p,5,True,85,-24.0,24.0
selftest,949.0,img/object-9_120-levels_1D/object9F0Level95F1Level40.png,p,exemplar_display,26,34740,dense_right,p,5,True,95,10.0,10.0
selftest,852.8000000715256,img/object-9_120-levels_1D/object9F0Level95F1Level40.png,p,exemplar_display,28,37247,dense_right,q,5,False,95,0.0,0.0
selftest,1346.0,img/object-9_120-levels_1D/object9F0Level85F1Level40.png,q,exemplar_display,30,39754,dense_right,p,5,False,85,-10.0,10.0
selftest,561.7000000476837,img/object-9_120-levels_1D/object9F0Level107F1Level40.png,p,exemplar_display,32,42259,dense_right,p,5,True,107,22.0,22.0
selftest,1944.6000000238419,img/object-9_120-levels_1D/object9F0Level89F1Level40.png,p,exemplar_display,34,44764,dense_right,p,5,True,89,-18.0,18.0
selftest,1214.2000000476837,img/object-9_120-levels_1D/object9F0Level79F1Level40.png,p,exemplar_display,36,47271,dense_right,p,5,True,79,-10.0,10.0
selftest,1251.8000000715256,img/object-9_120-levels_1D/object9F0Level79F1Level40.png,q,exemplar_display,38,49777,dense_right,q,5,True,79,0.0,0.0
selftest,674.3000000715256,img/object-9_120-levels_1D/object9F0Level83F1Level40.png,q,exemplar_display,40,52282,dense_right,p,5,False,83,4.0,4.0
selftest,615.5,img/object-9_120-levels_1D/object9F0Level87F1Level40.png,q,exemplar_display,42,54801,dense_right,p,5,False,87,4.0,4.0
selftest,571.2000000476837,img/object-9_120-levels_1D/object9F0Level117F1Level40.png,p,exemplar_display,44,57306,dense_right,p,5,True,117,30.0,30.0
selftest,936.8999999761581,img/object-9_120-levels_1D/object9F0Level111F1Level40.png,q,exemplar_display,46,59813,dense_right,p,5,False,111,-6.0,6.0
selftest,694.6000000238419,img/object-9_120-levels_1D/object9F0Level111F1Level40.png,q,exemplar_display,48,62319,dense_right,q,5,True,111,0.0,0.0
selftest,804.6000000238419,img/object-9_120-levels_1D/object9F0Level117F1Level40.png,q,exemplar_display,50,64824,dense_right,p,5,False,117,6.0,6.0
selftest,683.6000000238419,img/object-9_120-levels_1D/object9F0Level109F1Level40.png,q,exemplar_display,52,67329,dense_right,p,5,False,109,-8.0,8.0
selftest,627.3999999761581,img/object-9_120-levels_1D/object9F0Level83F1Level40.png,p,exemplar_display,54,69833,dense_right,p,5,True,83,-26.0,26.0
selftest,1485.0,img/object-9_120-levels_1D/object9F0Level79F1Level40.png,q,exemplar_display,56,72337,dense_right,p,5,False,79,-4.0,4.0
selftest,547.7999999523163,img/object-9_120-levels_1D/object9F0Level79F1Level40.png,q,exemplar_display,58,74841,dense_right,q,5,True,79,0.0,0.0
selftest,619.8000000715256,img/object-9_120-levels_1D/object9F0Level77F1Level40.png,q,exemplar_display,60,77346,dense_right,p,5,False,77,-2.0,2.0
selftest,1017.1000000238419,img/object-9_120-levels_1D/object9F0Level93F1Level40.png,p,exemplar_display,62,79851,dense_right,p,5,True,93,16.0,16.0
selftest,1191.7999999523163,img/object-9_120-levels_1D/object9F0Level95F1Level40.png,q,exemplar_display,64,82357,dense_right,p,5,False,95,2.0,2.0
selftest,806.1999999284744,img/object-9_120-levels_1D/object9F0Level91F1Level40.png,q,exemplar_display,66,84863,dense_right,p,5,False,91,-4.0,4.0
selftest,859.6000000238419,img/object-9_120-levels_1D/object9F0Level93F1Level40.png,q,exemplar_display,68,87369,dense_right,p,5,False,93,2.0,2.0
selftest,852.0,img/object-9_120-levels_1D/object9F0Level93F1Level40.png,p,exemplar_display,70,89874,dense_right,q,5,False,93,0.0,0.0
selftest,966.7999999523163,img/object-9_120-levels_1D/object9F0Level105F1Level40.png,p,exemplar_display,72,92383,dense_right,p,5,True,105,12.0,12.0
selftest,1011.8999999761581,img/object-9_120-levels_1D/object9F0Level89F1Level40.png,q,exemplar_display,74,94889,dense_right,p,5,False,89,-16.0,16.0
selftest,2002.3000000715256,img/object-9_120-levels_1D/object9F0Level107F1Level40.png,p,exemplar_display,76,97395,dense_right,p,5,True,107,18.0,18.0
selftest,1184.2999999523163,img/object-9_120-levels_1D/object9F0Level93F1Level40.png,q,exemplar_display,78,99900,dense_right,p,5,False,93,-14.0,14.0
selftest,1976.1999999284744,img/object-9_120-levels_1D/object9F0Level87F1Level40.png,q,exemplar_display,80,102403,dense_right,p,5,False,87,-6.0,6.0
selftest,679.6000000238419,img/object-9_120-levels_1D/object9F0Level87F1Level40.png,q,exemplar_display,82,104909,dense_right,q,5,True,87,0.0,0.0
selftest,1742.6999999284744,img/object-9_120-levels_1D/object9F0Level83F1Level40.png,p,exemplar_display,84,107414,dense_right,p,5,True,83,-4.0,4.0
sub_01,,img/object-9_120-levels_1D/object9F0Level111F1Level40.png,,exemplar_display,2,16669,dense_right,,1,,111,,
sub_01,1054.0999999046326,img/object-9_120-levels_1D/object9F0Level91F1Level40.png,q,exemplar_display,4,19189,dense_right,p,1,False,91,-20.0,20.0
sub_01,1321.8999998569489,img/object-9_120-levels_1D/object9F0Level115F1Level40.png,q,exemplar_display,6,21719,dense_right,p,1,False,115,24.0,24.0
sub_01,1398.3999998569489,img/object-9_120-levels_1D/object9F0Level117F1Level40.png,p,exemplar_display,8,24249,dense_right,p,1,True,117,2.0,2.0
sub_01,1842.5,img/object-9_120-levels_1D/object9F0Level111F1Level40.png,p,exemplar_display,10,26779,dense_right,p,1,True,111,-6.0,6.0
sub_01,967.6000001430511,img/object-9_120-levels_1D/object9F0Level81F1Level40.png,p,exemplar_display,12,29308,dense_right,p,1,True,81,-30.0,30.0
sub_01,1668.0999999046326,img/object-9_120-levels_1D/object9F0Level87F1Level40.png,q,exemplar_display,14,31813,dense_right,p,1,False,87,6.0,6.0
sub_01,817.4000000953674,img/object-9_120-levels_1D/object9F0Level115F1Level40.png,p,exemplar_display,16,34316,dense_right,p,1,True,115,28.0,28.0
sub_01,981.6000001430511,img/object-9_120-levels_1D/object9F0Level117F1Level40.png,q,exemplar_display,18,36819,dense_right,p,1,False,117,2.0,2.0
sub_01,1059.8999998569489,img/object-9_120-levels_1D/object9F0Level117F1Level40.png,p,exemplar_display,20,39324,dense_right,q,1,False,117,0.0,0.0
sub_01,1127.7999999523163,img/object-9_120-levels_1D/object9F0Level107F1Level40.png,q,exemplar_display,22,41827,dense_right,p,1,False,107,-10.0,10.0
sub_01,1412.6000001430511,img/object-9_120-levels_1D/object9F0Level85F1Level40.png,p,exemplar_display,24,44330,dense_right,p,1,True,85,-22.0,22.0
sub_01,1274.9000000953674,img/object-9_120-levels_1D/object9F0Level85F1Level40.png,p,exemplar_display,26,46833,dense_right,q,1,False,85,0.0,0.0
sub_01,1963.5999999046326,img/object-9_120-levels_1D/object9F0Level101F1Level40.png,p,exemplar_display,28,49345,dense_right,p,1,True,101,16.0,16.0
sub_01,650.7000000476837,img/object-9_120-levels_1D/object9F0Level81F1Level40.png,q,exemplar_display,30,51848,dense_right,p,1,False,81,-20.0,20.0
sub_01,709.4000000953674,img/object-9_120-levels_1D/object9F0Level81F1Level40.png,q,exemplar_display,32,54351,dense_right,q,1,True,81,0.0,0.0
sub_01,567.5,img/object-9_120-levels_1D/object9F0Level111F1Level40.png,p,exemplar_display,34,56854,dense_right,p,1,True,111,30.0,30.0
sub_01,1058.2000000476837,img/object-9_120-levels_1D/object9F0Level103F1Level40.png,q,exemplar_display,36,59358,dense_right,p,1,False,103,-8.0,8.0
sub_01,793.0,img/object-9_120-levels_1D/object9F0Level113F1Level40.png,q,exemplar_display,38,61862,dense_right,p,1,False,113,10.0,10.0
sub_01,1503.8000001907349,img/object-9_120-levels_1D/object9F0Level113F1Level40.png,q,exemplar_display,40,64365,dense_right,q,1,True,113,0.0,0.0
sub_01,1329.2999999523163,img/object-9_120-levels_1D/object9F0Level109F1Level40.png,q,exemplar_display,42,66868,dense_right,p,1,False,109,-4.0,4.0
sub_01,827.5,img/object-9_120-levels_1D/object9F0Level77F1Level40.png,p,exemplar_display,44,69379,dense_right,p,1,True,77,-32.0,32.0
sub_01,580.6000001430511,img/object-9_120-levels_1D/object9F0Level105F1Level40.png,q,exemplar_display,46,71881,dense_right,p,1,False,105,28.0,28.0
sub_01,1037.0,img/object-9_120-levels_1D/object9F0Level83F1Level40.png,p,exemplar_display,48,74384,dense_right,p,1,True,83,-22.0,22.0
sub_01,1302.0999999046326,img/object-9_120-levels_1D/object9F0Level99F1Level40.png,p,exemplar_display,50,76887,dense_right,p,1,True,99,16.0,16.0
sub_01,917.7000000476837,img/object-9_120-levels_1D/object9F0Level79F1Level40.png,p,exemplar_display,52,79391,dense_right,p,1,True,79,-20.0,20.0
sub_01,1342.7000000476837,img/object-9_120-levels_1D/object9F0Level91F1Level40.png,p,exemplar_display,54,81894,dense_right,p,1,True,91,12.0,12.0
sub_01,1200.5,img/object-9_120-levels_1D/object9F0Level101F1Level40.png,q,exemplar_display,56,84397,dense_right,p,1,False,101,10.0,10.0
sub_01,1314.2000000476837,img/object-9_120-levels_1D/object9F0Level101F1Level40.png,q,exemplar_display,58,86902,dense_right,q,1,True,101,0.0,0.0
sub_01,1781.5,img/object-9_120-levels_1D/object9F0Level91F1Level40.png,q,exemplar_display,60,89412,dense_right,p,1,False,91,-10.0,10.0
sub_01,1398.7999999523163,img/object-9_120-levels_1D/object9F0Level85F1Level40.png,q,exemplar_display,62,91915,dense_right,p,1,False,85,-6.0,6.0
sub_01,1452.5,img/object-9_120-levels_1D/object9F0Level83F1Level40.png,p,exemplar_display,64,94419,dense_right,p,1,True,83,-2.0,2.0
sub_01,1082.0999999046326,img/object-9_120-levels_1D/object9F0Level83F1Level40.png,q,exemplar_display,66,96923,dense_right,q,1,True,83,0.0,0.0
sub_01,1330.5,img/object-9_120-levels_1D/object9F0Level83F1Level40.png,p,exemplar_display,68,99426,dense_right,q,1,False,83,0.0,0.0
sub_01,1058.0999999046326,img/object-9_120-levels_1D/object9F0Level117F1Level40.png,p,exemplar_display,70,101930,dense_right,p,1,True,117,34.0,34.0
sub_01,1226.6999998092651,img/object-9_120-levels_1D/object9F0Level101F1Level40.png,p,exemplar_display,72,104441,dense_right,p,1,True,101,-16.0,16.0
sub_01,1412.8000001907349,img/object-9_120-levels_1D/object9F0Level109F1Level40.png,p,exemplar_display,74,106945,dense_right,p,1,True,109,8.0,8.0
sub_01,898.4000000953674,img/object-9_120-levels_1D/object9F0Level111F1Level40.png,q,exemplar_display,76,109448,dense_right,p,1,False,111,2.0,2.0
sub_01,2011.5,img/object-9_120-levels_1D/object9F0Level111F1Level40.png,q,exemplar_display,78,111962,dense_right,q,1,True,111,0.0,0.0
sub_01,919.5,img/object-9_120-levels_1D/object9F0Level109F1Level40.png,q,exemplar_display,80,114465,dense_right,p,1,False,109,-2.0,2.0
sub_01,716.1000001430511,img/object-9_120-levels_1D/object9F0Level89F1Level40.png,p,exemplar_display,82,116968,dense_right,p,1,True,89,-20.0,20.0
sub_01,991.1000001430511,img/object-9_120-levels_1D/object9F0Level89F1Level40.png,q,exemplar_display,84,119471,dense_right,q,1,True,89,0.0,0.0
sub_01,,img/object-9_120-levels_1D/object9F0Level101F1Level40.png,,exemplar_display,2,16070,dense_right,p,2,,101,12.0,12.0
sub_01,1568.5,img/object-9_120-levels_1D/object9F0Level113F1Level40.png,q,exemplar_display,4,18600,dense_right,p,2,False,113,12.0,12.0
sub_01,1448.5999999046326,img/object-9_120-levels_1D/object9F0Level99F1Level40.png,q,exemplar_display,6,21110,dense_right,p,2,False,99,-14.0,14.0
sub_01,1109.0,img/object-9_120-levels_1D/object9F0Level103F1Level40.png,q,exemplar_display,8,23630,dense_right,p,2,False,103,4.0,4.0
sub_01,1085.5999999046326,img/object-9_120-levels_1D/object9F0Level103F1Level40.png,q,exemplar_display,10,26151,dense_right,q,2,True,103,0.0,0.0
sub_01,981.2999999523163,img/object-9_120-levels_1D/object9F0Level103F1Level40.png,p,exemplar_display,12,28670,dense_right,q,2,False,103,0.0,0.0
sub_01,1319.7000000476837,img/object-9_120-levels_1D/object9F0Level99F1Level40.png,q,exemplar_display,14,31183,dense_right,p,2,False,99,-4.0,4.0
sub_01,873.9000000953674,img/object-9_120-levels_1D/object9F0Level81F1Level40.png,p,exemplar_display,16,33686,dense_right,p,2,True,81,-18.0,18.0
sub_01,862.6000001430511,img/object-9_120-levels_1D/object9F0Level105F1Level40.png,p,exemplar_display,18,36189,dense_right,p,2,True,105,24.0,24.0
sub_01,695.0999999046326,img/object-9_120-levels_1D/object9F0Level105F1Level40.png,q,exemplar_display,20,38693,dense_right,q,2,True,105,0.0,0.0
sub_01,943.3999998569489,img/object-9_120-levels_1D/object9F0Level117F1Level40.png,p,exemplar_display,22,41197,dense_right,p,2,True,117,12.0,12.0
sub_01,890.0999999046326,img/object-9_120-levels_1D/object9F0Level117F1Level40.png,q,exemplar_display,24,43703,dense_right,q,2,True,117,0.0,0.0
sub_01,1490.0,img/object-9_120-levels_1D/object9F0Level113F1Level40.png,q,exemplar_display,26,46206,dense_right,p,2,False,113,-4.0,4.0
sub_01,827.0,img/object-9_120-levels_1D/object9F0Level85F1Level40.png,p,exemplar_display,28,48718,dense_right,p,2,True,85,-28.0,28.0
sub_01,1141.0,img/object-9_120-levels_1D/object9F0Level107F1Level40.png,p,exemplar_display,30,51221,dense_right,p,2,True,107,22.0,22.0
sub_01,1501.1000001430511,img/object-9_120-levels_1D/object9F0Level107F1Level40.png,p,exemplar_display,32,53724,dense_right,q,2,False,107,0.0,0.0
sub_01,921.0999999046326,img/object-9_120-levels_1D/object9F0Level89F1Level40.png,p,exemplar_display,34,56228,dense_right,p,2,True,89,-18.0,18.0
sub_01,1512.7000000476837,img/object-9_120-levels_1D/object9F0Level99F1Level40.png,q,exemplar_display,36,58731,dense_right,p,2,False,99,10.0,10.0
sub_01,1208.7999999523163,img/object-9_120-levels_1D/object9F0Level99F1Level40.png,q,exemplar_display,38,61235,dense_right,q,2,True,99,0.0,0.0
sub_01,909.9000000953674,img/object-9_120-levels_1D/object9F0Level83F1Level40.png,p,exemplar_display,40,63739,dense_right,p,2,True,83,-16.0,16.0
sub_01,1124.3999998569489,img/object-9_120-levels_1D/object9F0Level79F1Level40.png,q,exemplar_display,42,66243,dense_right,p,2,False,79,-4.0,4.0
sub_01,1362.0,img/object-9_120-levels_1D/object9F0Level79F1Level40.png,q,exemplar_display,44,68755,dense_right,q,2,True,79,0.0,0.0
sub_01,1259.7000000476837,img/object-9_120-levels_1D/object9F0Level95F1Level40.png,p,exemplar_display,46,71259,dense_right,p,2,True,95,16.0,16.0
sub_01,1519.2000000476837,img/object-9_120-levels_1D/object9F0Level85F1Level40.png,p,exemplar_display,48,73762,dense_right,p,2,True,85,-10.0,10.0
sub_01,1421.5,img/object-9_120-levels_1D/object9F0Level105F1Level40.png,p,exemplar_display,50,76266,dense_right,p,2,True,105,20.0,20.0
sub_01,1279.0,img/object-9_120-levels_1D/object9F0Level93F1Level40.png,p,exemplar_display,52,78768,dense_right,p,2,True,93,-12.0,12.0
sub_01,1013.0,img/object-9_120-levels_1D/object9F0Level77F1Level40.png,p,exemplar_display,54,81272,dense_right,p,2,True,77,-16.0,16.0
sub_01,1235.5,img/object-9_120-levels_1D/object9F0Level95F1Level40.png,p,exemplar_display,56,83775,dense_right,p,2,True,95,18.0,18.0
sub_01,1263.9000000953674,img/object-9_120-levels_1D/object9F0Level89F1Level40.png,q,exemplar_display,58,86279,dense_right,p,2,False,89,-6.0,6.0
sub_01,929.2000000476837,img/object-9_120-levels_1D/object9F0Level105F1Level40.png,p,exemplar_display,60,88784,dense_right,p,2,True,105,16.0,16.0
sub_01,1032.8999998569489,img/object-9_120-levels_1D/object9F0Level93F1Level40.png,p,exemplar_display,62,91286,dense_right,p,2,True,93,-12.0,12.0
sub_01,930.1000001430511,img/object-9_120-levels_1D/object9F0Level93F1Level40.png,q,exemplar_display,64,93802,dense_right,q,2,True,93,0.0,0.0
sub_01,758.5999999046326,img/object-9_120-levels_1D/object9F0Level109F1Level40.png,p,exemplar_display,66,96312,dense_right,p,2,True,109,16.0,16.0
sub_01,802.1000001430511,img/object-9_120-levels_1D/object9F0Level85F1Level40.png,p,exemplar_display,68,98816,dense_right,p,2,True,85,-24.0,24.0
sub_01,860.5,img/object-9_120-levels_1D/object9F0Level109F1Level40.png,p,exemplar_display,70,101320,dense_right,p,2,True,109,24.0,24.0
sub_01,965.5,img/object-9_120-levels_1D/object9F0Level93F1Level40.png,p,exemplar_display,72,103823,dense_right,p,2,True,93,-16.0,16.0
sub_01,866.7999999523163,img/object-9_120-levels_1D/object9F0Level81F1Level40.png,p,exemplar_display,74,106325,dense_right,p,2,True,81,-12.0,12.0
sub_01,890.7000000476837,img/object-9_120-levels_1D/object9F0Level77F1Level40.png,q,exemplar_display,76,108829,dense_right,p,2,False,77,-4.0,4.0
sub_01,1130.3999998569489,img/object-9_120-levels_1D/object9F0Level93F1Level40.png,p,exemplar_display,78,111332,dense_right,p,2,True,93,16.0,16.0
sub_01,776.7000000476837,img/object-9_120-levels_1D/object9F0Level117F1Level40.png,p,exemplar_display,80,113835,dense_right,p,2,True,117,24.0,24.0
sub_01,1241.2000000476837,img/object-9_120-levels_1D/object9F0Level99F1Level40.png,p,exemplar_display,82,116339,dense_right,p,2,True,99,-18.0,18.0
sub_01,801.2000000476837,img/object-9_120-levels_1D/object9F0Level99F1Level40.png,q,exemplar_display,84,118844,dense_right,q,2,True,99,0.0,0.0
sub_01,,img/object-9_120-levels_1D/object9F0Level89F1Level40.png,,exemplar_display,2,16155,dense_right,p,3,,89,-10.0,10.0
sub_01,936.7999999523163,img/object-9_120-levels_1D/object9F0Level89F1Level40.png,p,exemplar_display,4,18682,dense_right,q,3,False,89,0.0,0.0
sub_01,832.0,img/object-9_120-levels_1D/object9F0Level105F1Level40.png,p,exemplar_display,6,21215,dense_right,p,3,True,105,16.0,16.0
sub_01,583.0999999046326,img/object-9_120-levels_1D/object9F0Level105F1Level40.png,q,exemplar_display,8,23745,dense_right,q,3,True,105,0.0,0.0
sub_01,993.4000000953674,img/object-9_120-levels_1D/object9F0Level87F1Level40.png,p,exemplar_display,10,26275,dense_right,p,3,True,87,-18.0,18.0
sub_01,645.7999999523163,img/object-9_120-levels_1D/object9F0Level111F1Level40.png,q,exemplar_display,12,28804,dense_right,p,3,False,111,24.0,24.0
sub_01,1074.5999999046326,img/object-9_120-levels_1D/object9F0Level111F1Level40.png,q,exemplar_display,14,31327,dense_right,q,3,True,111,0.0,0.0
sub_01,594.7999999523163,img/object-9_120-levels_1D/object9F0Level79F1Level40.png,p,exemplar_display,16,33831,dense_right,p,3,True,79,-32.0,32.0
sub_01,834.3999998569489,img/object-9_120-levels_1D/object9F0Level111F1Level40.png,p,exemplar_display,18,36334,dense_right,p,3,True,111,32.0,32.0
sub_01,808.7999999523163,img/object-9_120-levels_1D/object9F0Level109F1Level40.png,q,exemplar_display,20,38841,dense_right,p,3,False,109,-2.0,2.0
sub_01,737.1000001430511,img/object-9_120-levels_1D/object9F0Level83F1Level40.png,p,exemplar_display,22,41344,dense_right,p,3,True,83,-26.0,26.0
sub_01,956.2000000476837,img/object-9_120-levels_1D/object9F0Level83F1Level40.png,q,exemplar_display,24,43848,dense_right,q,3,True,83,0.0,0.0
sub_01,969.0,img/object-9_120-levels_1D/object9F0Level115F1Level40.png,p,exemplar_display,26,46351,dense_right,p,3,True,115,32.0,32.0
sub_01,937.0999999046326,img/object-9_120-levels_1D/object9F0Level101F1Level40.png,q,exemplar_display,28,48854,dense_right,p,3,False,101,-14.0,14.0
sub_01,1079.5999999046326,img/object-9_120-levels_1D/object9F0Level87F1Level40.png,p,exemplar_display,30,51365,dense_right,p,3,True,87,-14.0,14.0
sub_01,1197.7000000476837,img/object-9_120-levels_1D/object9F0Level87F1Level40.png,q,exemplar_display,32,53869,dense_right,q,3,True,87,0.0,0.0
sub_01,1079.8000001907349,img/object-9_120-levels_1D/object9F0Level89F1Level40.png,q,exemplar_display,34,56373,dense_right,p,3,False,89,2.0,2.0
sub_01,1615.2000000476837,img/object-9_120-levels_1D/object9F0Level103F1Level40.png,p,exemplar_display,36,58876,dense_right,p,3,True,103,14.0,14.0
sub_01,875.1000001430511,img/object-9_120-levels_1D/object9F0Level81F1Level40.png,p,exemplar_display,38,61380,dense_right,p,3,True,81,-22.0,22.0
sub_01,853.0999999046326,img/object-9_120-levels_1D/object9F0Level87F1Level40.png,q,exemplar_display,40,63884,dense_right,p,3,False,87,6.0,6.0
sub_01,1433.4000000953674,img/object-9_120-levels_1D/object9F0Level97F1Level40.png,q,exemplar_display,42,66388,dense_right,p,3,False,97,10.0,10.0
sub_01,897.7999999523163,img/object-9_120-levels_1D/object9F0Level77F1Level40.png,p,exemplar_display,44,68892,dense_right,p,3,True,77,-20.0,20.0
sub_01,901.5999999046326,img/object-9_120-levels_1D/object9F0Level101F1Level40.png,p,exemplar_display,46,71405,dense_right,p,3,True,101,24.0,24.0
sub_01,882.7000000476837,img/object-9_120-levels_1D/object9F0Level103F1Level40.png,q,exemplar_display,48,73910,dense_right,p,3,False,103,2.0,2.0
sub_01,809.5999999046326,img/object-9_120-levels_1D/object9F0Level79F1Level40.png,p,exemplar_display,50,76414,dense_right,p,3,True,79,-24.0,24.0
sub_01,1058.7999999523163,img/object-9_120-levels_1D/object9F0Level97F1Level40.png,p,exemplar_display,52,78918,dense_right,p,3,True,97,18.0,18.0
sub_01,1247.1000001430511,img/object-9_120-levels_1D/object9F0Level113F1Level40.png,p,exemplar_display,54,81423,dense_right,p,3,True,113,16.0,16.0
sub_01,742.4000000953674,img/object-9_120-levels_1D/object9F0Level103F1Level40.png,q,exemplar_display,56,83926,dense_right,p,3,False,103,-10.0,10.0
sub_01,1081.8999998569489,img/object-9_120-levels_1D/object9F0Level113F1Level40.png,q,exemplar_display,58,86430,dense_right,p,3,False,113,10.0,10.0
sub_01,1487.7999999523163,img/object-9_120-levels_1D/object9F0Level91F1Level40.png,p,exemplar_display,60,88942,dense_right,p,3,True,91,-22.0,22.0
sub_01,893.0,img/object-9_120-levels_1D/object9F0Level113F1Level40.png,p,exemplar_display,62,91445,dense_right,p,3,True,113,22.0,22.0
sub_01,1317.8000001907349,img/object-9_120-levels_1D/object9F0Level91F1Level40.png,q,exemplar_display,64,93949,dense_right,p,3,False,91,-22.0,22.0
sub_01,1080.1999998092651,img/object-9_120-levels_1D/object9F0Level85F1Level40.png,p,exemplar_display,66,96453,dense_right,p,3,True,85,-6.0,6.0
sub_01,872.0,img/object-9_120-levels_1D/object9F0Level85F1Level40.png,q,exemplar_display,68,98956,dense_right,q,3,True,85,0.0,0.0
sub_01,1091.1000001430511,img/object-9_120-levels_1D/object9F0Level79F1Level40.png,p,exemplar_display,70,101460,dense_right,p,3,True,79,-6.0,6.0
sub_01,978.9000000953674,img/object-9_120-levels_1D/object9F0Level97F1Level40.png,p,exemplar_display,72,103963,dense_right,p,3,True,97,18.0,18.0
sub_01,866.8999998569489,img/object-9_120-levels_1D/object9F0Level95F1Level40.png,q,exemplar_display,74,106466,dense_right,p,3,False,95,-2.0,2.0
sub_01,980.2000000476837,img/object-9_120-levels_1D/object9F0Level95F1Level40.png,q,exemplar_display,76,108970,dense_right,q,3,True,95,0.0,0.0
sub_01,1415.5,img/object-9_120-levels_1D/object9F0Level91F1Level40.png,q,exemplar_display,78,111474,dense_right,p,3,False,91,-4.0,4.0
sub_01,1548.7999999523163,img/object-9_120-levels_1D/object9F0Level95F1Level40.png,q,exemplar_display,80,113978,dense_right,p,3,False,95,4.0,4.0
sub_01,1405.4000000953674,img/object-9_120-levels_1D/object9F0Level101F1Level40.png,p,exemplar_display,82,116481,dense_right,p,3,True,101,6.0,6.0
sub_01,856.6000001430511,img/object-9_120-levels_1D/object9F0Level109F1Level40.png,q,exemplar_display,84,118984,dense_right,p,3,False,109,8.0,8.0
sub_01,,img/object-9_120-levels_1D/object9F0Level77F1Level40.png,,exemplar_display,2,16994,dense_right,p,4,,77,-32.0,32.0
sub_01,908.2000000476837,img/object-9_120-levels_1D/object9F0Level77F1Level40.png,q,exemplar_display,4,19524,dense_right,q,4,True,77,0.0,0.0
sub_01,1108.0999999046326,img/object-9_120-levels_1D/object9F0Level87F1Level40.png,p,exemplar_display,6,22054,dense_right,p,4,True,87,10.0,10.0
sub_01,1436.0999999046326,img/object-9_120-levels_1D/object9F0Level95F1Level40.png,q,exemplar_display,8,24584,dense_right,p,4,False,95,8.0,8.0
sub_01,830.3999998569489,img/object-9_120-levels_1D/object9F0Level77F1Level40.png,p,exemplar_display,10,27114,dense_right,p,4,True,77,-18.0,18.0
sub_01,732.9000000953674,img/object-9_120-levels_1D/object9F0Level103F1Level40.png,p,exemplar_display,12,29635,dense_right,p,4,True,103,26.0,26.0
sub_01,885.3999998569489,img/object-9_120-levels_1D/object9F0Level103F1Level40.png,q,exemplar_display,14,32139,dense_right,q,4,True,103,0.0,0.0
sub_01,788.0,img/object-9_120-levels_1D/object9F0Level77F1Level40.png,p,exemplar_display,16,34642,dense_right,p,4,True,77,-26.0,26.0
sub_01,696.6999998092651,img/object-9_120-levels_1D/object9F0Level91F1Level40.png,p,exemplar_display,18,37145,dense_right,p,4,True,91,14.0,14.0
sub_01,799.3999998569489,img/object-9_120-levels_1D/object9F0Level97F1Level40.png,q,exemplar_display,20,39649,dense_right,p,4,False,97,6.0,6.0
sub_01,913.4000000953674,img/object-9_120-levels_1D/object9F0Level97F1Level40.png,q,exemplar_display,22,42152,dense_right,q,4,True,97,0.0,0.0
sub_01,711.2000000476837,img/object-9_120-levels_1D/object9F0Level91F1Level40.png,q,exemplar_display,24,44656,dense_right,p,4,False,91,-6.0,6.0
sub_01,734.6999998092651,img/object-9_120-levels_1D/object9F0Level115F1Level40.png,p,exemplar_display,26,47158,dense_right,p,4,True,115,24.0,24.0
sub_01,804.0,img/object-9_120-levels_1D/object9F0Level113F1Level40.png,q,exemplar_display,28,49660,dense_right,p,4,False,113,-2.0,2.0
sub_01,733.5,img/object-9_120-levels_1D/object9F0Level91F1Level40.png,p,exemplar_display,30,52173,dense_right,p,4,True,91,-22.0,22.0
sub_01,923.3999998569489,img/object-9_120-levels_1D/object9F0Level113F1Level40.png,p,exemplar_display,32,54675,dense_right,p,4,True,113,22.0,22.0
sub_01,605.0,img/object-9_120-levels_1D/object9F0Level113F1Level40.png,q,exemplar_display,34,57178,dense_right,q,4,True,113,0.0,0.0
sub_01,674.0,img/object-9_120-levels_1D/object9F0Level107F1Level40.png,q,exemplar_display,36,59682,dense_right,p,4,False,107,-6.0,6.0
sub_01,707.0999999046326,img/object-9_120-levels_1D/object9F0Level105F1Level40.png,q,exemplar_display,38,62185,dense_right,p,4,False,105,-2.0,2.0
sub_01,685.2000000476837,img/object-9_120-levels_1D/object9F0Level81F1Level40.png,p,exemplar_display,40,64689,dense_right,p,4,True,81,-24.0,24.0
sub_01,1060.0,img/object-9_120-levels_1D/object9F0Level83F1Level40.png,q,exemplar_display,42,67192,dense_right,p,4,False,83,2.0,2.0
sub_01,1013.2000000476837,img/object-9_120-levels_1D/object9F0Level111F1Level40.png,p,exemplar_display,44,69695,dense_right,p,4,True,111,28.0,28.0
sub_01,688.2000000476837,img/object-9_120-levels_1D/object9F0Level107F1Level40.png,q,exemplar_display,46,72207,dense_right,p,4,False,107,-4.0,4.0
sub_01,975.5,img/object-9_120-levels_1D/object9F0Level107F1Level40.png,q,exemplar_display,48,74711,dense_right,q,4,True,107,0.0,0.0
sub_01,1230.2000000476837,img/object-9_120-levels_1D/object9F0Level87F1Level40.png,p,exemplar_display,50,77214,dense_right,p,4,True,87,-20.0,20.0
sub_01,991.2999999523163,img/object-9_120-levels_1D/object9F0Level107F1Level40.png,p,exemplar_display,52,79718,dense_right,p,4,True,107,20.0,20.0
sub_01,854.1999998092651,img/object-9_120-levels_1D/object9F0Level85F1Level40.png,p,exemplar_display,54,82221,dense_right,p,4,True,85,-22.0,22.0
sub_01,706.7000000476837,img/object-9_120-levels_1D/object9F0Level87F1Level40.png,q,exemplar_display,56,84726,dense_right,p,4,False,87,2.0,2.0
sub_01,688.9000000953674,img/object-9_120-levels_1D/object9F0Level87F1Level40.png,q,exemplar_display,58,87228,dense_right,q,4,True,87,0.0,0.0
sub_01,783.2000000476837,img/object-9_120-levels_1D/object9F0Level95F1Level40.png,p,exemplar_display,60,89732,dense_right,p,4,True,95,8.0,8.0
sub_01,887.6000001430511,img/object-9_120-levels_1D/object9F0Level79F1Level40.png,p,exemplar_display,62,92244,dense_right,p,4,True,79,-16.0,16.0
sub_01,850.4000000953674,img/object-9_120-levels_1D/object9F0Level107F1Level40.png,p,exemplar_display,64,94748,dense_right,p,4,True,107,28.0,28.0
sub_01,973.4000000953674,img/object-9_120-levels_1D/object9F0Level93F1Level40.png,q,exemplar_display,66,97252,dense_right,p,4,False,93,-14.0,14.0
sub_01,595.5,img/object-9_120-levels_1D/object9F0Level93F1Level40.png,q,exemplar_display,68,99755,dense_right,q,4,True,93,0.0,0.0
sub_01,628.1000001430511,img/object-9_120-levels_1D/object9F0Level117F1Level40.png,p,exemplar_display,70,102258,dense_right,p,4,True,117,24.0,24.0
sub_01,697.0,img/object-9_120-levels_1D/object9F0Level99F1Level40.png,q,exemplar_display,72,104761,dense_right,p,4,False,99,-18.0,18.0
sub_01,825.7000000476837,img/object-9_120-levels_1D/object9F0Level115F1Level40.png,p,exemplar_display,74,107271,dense_right,p,4,True,115,16.0,16.0
sub_01,720.6000001430511,img/object-9_120-levels_1D/object9F0Level115F1Level40.png,q,exemplar_display,76,109775,dense_right,q,4,True,115,0.0,0.0
sub_01,684.0,img/object-9_120-levels_1D/object9F0Level93F1Level40.png,p,exemplar_display,78,112279,dense_right,p,4,True,93,-22.0,22.0
sub_01,779.2999999523163,img/object-9_120-levels_1D/object9F0Level81F1Level40.png,p,exemplar_display,80,114782,dense_right,p,4,True,81,-12.0,12.0
sub_01,604.7000000476837,img/object-9_120-levels_1D/object9F0Level81F1Level40.png,q,exemplar_display,82,117285,dense_right,q,4,True,81,0.0,0.0
sub_01,1660.9000000953674,img/object-9_120-levels_1D/object9F0Level79F1Level40.png,p,exemplar_display,84,119790,dense_right,p,4,True,79,-2.0,2.0
sub_01,,img/object-9_120-levels_1D/object9F0Level97F1Level40.png,,exemplar_display,2,16080,dense_right,p,5,,97,18.0,18.0
sub_01,1331.0,img/object-9_120-levels_1D/object9F0Level83F1Level40.png,q,exemplar_display,4,18610,dense_right,p,5,False,83,-14.0,14.0
sub_01,752.2999999523163,img/object-9_120-levels_1D/object9F0Level103F1Level40.png,p,exemplar_display,6,21137,dense_right,p,5,True,103,20.0,20.0
sub_01,975.0999999046326,img/object-9_120-levels_1D/object9F0Level97F1Level40.png,q,exemplar_display,8,23671,dense_right,p,5,False,97,-6.0,6.0
sub_01,665.0999999046326,img/object-9_120-levels_1D/object9F0Level97F1Level40.png,q,exemplar_display,10,26200,dense_right,q,5,True,97,0.0,0.0
sub_01,949.4000000953674,img/object-9_120-levels_1D/object9F0Level109F1Level40.png,q,exemplar_display,12,28730,dense_right,p,5,False,109,12.0,12.0
sub_01,1527.0,img/object-9_120-levels_1D/object9F0Level109F1Level40.png,q,exemplar_display,14,31242,dense_right,q,5,True,109,0.0,0.0
sub_01,1505.1000001430511,img/object-9_120-levels_1D/object9F0Level109F1Level40.png,p,exemplar_display,16,33746,dense_right,q,5,False,109,0.0,0.0
sub_01,1371.2999999523163,img/object-9_120-levels_1D/object9F0Level89F1Level40.png,p,exemplar_display,18,36249,dense_right,p,5,True,89,-20.0,20.0
sub_01,948.0999999046326,img/object-9_120-levels_1D/object9F0Level85F1Level40.png,q,exemplar_display,20,38753,dense_right,p,5,False,85,-4.0,4.0
sub_01,1121.1000001430511,img/object-9_120-levels_1D/object9F0Level97F1Level40.png,p,exemplar_display,22,41257,dense_right,p,5,True,97,12.0,12.0
sub_01,863.5,img/object-9_120-levels_1D/object9F0Level107F1Level40.png,q,exemplar_display,24,43760,dense_right,p,5,False,107,10.0,10.0
sub_01,815.9000000953674,img/object-9_120-levels_1D/object9F0Level101F1Level40.png,q,exemplar_display,26,46263,dense_right,p,5,False,101,-6.0,6.0
sub_01,1402.1000001430511,img/object-9_120-levels_1D/object9F0Level87F1Level40.png,p,exemplar_display,28,48776,dense_right,p,5,True,87,-14.0,14.0
sub_01,937.8999998569489,img/object-9_120-levels_1D/object9F0Level111F1Level40.png,p,exemplar_display,30,51279,dense_right,p,5,True,111,24.0,24.0
sub_01,1292.7000000476837,img/object-9_120-levels_1D/object9F0Level77F1Level40.png,p,exemplar_display,32,53783,dense_right,p,5,True,77,-34.0,34.0
sub_01,923.5999999046326,img/object-9_120-levels_1D/object9F0Level105F1Level40.png,p,exemplar_display,34,56286,dense_right,p,5,True,105,28.0,28.0
sub_01,715.7000000476837,img/object-9_120-levels_1D/object9F0Level117F1Level40.png,q,exemplar_display,36,58790,dense_right,p,5,False,117,12.0,12.0
sub_01,633.5,img/object-9_120-levels_1D/object9F0Level115F1Level40.png,q,exemplar_display,38,61293,dense_right,p,5,False,115,-2.0,2.0
sub_01,1141.2999999523163,img/object-9_120-levels_1D/object9F0Level115F1Level40.png,p,exemplar_display,40,63795,dense_right,q,5,False,115,0.0,0.0
sub_01,787.7999999523163,img/object-9_120-levels_1D/object9F0Level115F1Level40.png,q,exemplar_display,42,66308,dense_right,q,5,True,115,0.0,0.0
sub_01,750.2999999523163,img/object-9_120-levels_1D/object9F0Level89F1Level40.png,p,exemplar_display,44,68811,dense_right,p,5,True,89,-26.0,26.0
sub_01,1039.8999998569489,img/object-9_120-levels_1D/object9F0Level95F1Level40.png,p,exemplar_display,46,71314,dense_right,p,5,True,95,6.0,6.0
sub_01,605.7999999523163,img/object-9_120-levels_1D/object9F0Level91F1Level40.png,q,exemplar_display,48,73818,dense_right,p,5,False,91,-4.0,4.0
sub_01,578.5999999046326,img/object-9_120-levels_1D/object9F0Level77F1Level40.png,p,exemplar_display,50,76322,dense_right,p,5,True,77,-14.0,14.0
sub_01,1048.5999999046326,img/object-9_120-levels_1D/object9F0Level93F1Level40.png,p,exemplar_display,52,78825,dense_right,p,5,True,93,16.0,16.0
sub_01,564.5,img/object-9_120-levels_1D/object9F0Level95F1Level40.png,q,exemplar_display,54,81328,dense_right,p,5,False,95,2.0,2.0
sub_01,642.7000000476837,img/object-9_120-levels_1D/object9F0Level95F1Level40.png,q,exemplar_display,56,83832,dense_right,q,5,True,95,0.0,0.0
sub_01,1134.2000000476837,img/object-9_120-levels_1D/object9F0Level107F1Level40.png,p,exemplar_display,58,86344,dense_right,p,5,True,107,12.0,12.0
sub_01,946.8999998569489,img/object-9_120-levels_1D/object9F0Level115F1Level40.png,p,exemplar_display,60,88847,dense_right,p,5,True,115,8.0,8.0
sub_01,1663.1000001430511,img/object-9_120-levels_1D/object9F0Level101F1Level40.png,p,exemplar_display,62,91351,dense_right,p,5,True,101,-14.0,14.0
sub_01,1138.2000000476837,img/object-9_120-levels_1D/object9F0Level117F1Level40.png,p,exemplar_display,64,93855,dense_right,p,5,True,117,16.0,16.0
sub_01,735.5,img/object-9_120-levels_1D/object9F0Level89F1Level40.png,p,exemplar_display,66,96357,dense_right,p,5,True,89,-28.0,28.0
sub_01,1089.6999998092651,img/object-9_120-levels_1D/object9F0Level99F1Level40.png,q,exemplar_display,68,98861,dense_right,p,5,False,99,10.0,10.0
sub_01,880.5,img/object-9_120-levels_1D/object9F0Level81F1Level40.png,p,exemplar_display,70,101366,dense_right,p,5,True,81,-18.0,18.0
sub_01,642.9000000953674,img/object-9_120-levels_1D/object9F0Level105F1Level40.png,q,exemplar_display,72,103869,dense_right,p,5,False,105,24.0,24.0
sub_01,1594.8999998569489,img/object-9_120-levels_1D/object9F0Level97F1Level40.png,p,exemplar_display,74,106383,dense_right,p,5,True,97,-8.0,8.0
sub_01,663.7000000476837,img/object-9_120-levels_1D/object9F0Level99F1Level40.png,q,exemplar_display,76,108886,dense_right,p,5,False,99,2.0,2.0
sub_01,911.8999998569489,img/object-9_120-levels_1D/object9F0Level79F1Level40.png,p,exemplar_display,78,111390,dense_right,p,5,True,79,-20.0,20.0
sub_01,1367.2999999523163,img/object-9_120-levels_1D/object9F0Level79F1Level40.png,q,exemplar_display,80,113893,dense_right,q,5,True,79,0.0,0.0
sub_01,1128.5,img/object-9_120-levels_1D/object9F0Level83F1Level40.png,q,exemplar_display,82,116397,dense_right,p,5,False,83,4.0,4.0
sub_01,910.1000001430511,img/object-9_120-levels_1D/object9F0Level93F1Level40.png,p,exemplar_display,84,118900,dense_right,p,5,True,93,10.0,10.0
sub_02,,img/object-9_120-levels_1D/object9F0Level35F1Level40.png,,exemplar_display,2,5682,dense_left,,1,,35,,
sub_02,1361.5999999996275,img/object-9_120-levels_1D/object9F0Level67F1Level40.png,p,exemplar_display,4,8190,dense_left,p,1,True,67,32.0,32.0
sub_02,1799.8999999985099,img/object-9_120-levels_1D/object9F0Level61F1Level40.png,p,exemplar_display,6,10697,dense_left,p,1,True,61,-6.0,6.0
sub_02,914.5999999996275,img/object-9_120-levels_1D/object9F0Level33F1Level40.png,p,exemplar_display,8,13206,dense_left,p,1,True,33,-28.0,28.0
sub_02,1031.0999999996275,img/object-9_120-levels_1D/object9F0Level59F1Level40.png,p,exemplar_display,10,15713,dense_left,p,1,True,59,26.0,26.0
sub_02,709.3000000007451,img/object-9_120-levels_1D/object9F0Level59F1Level40.png,q,exemplar_display,12,18220,dense_left,q,1,True,59,0.0,0.0
sub_02,1070.800000000745,img/object-9_120-levels_1D/object9F0Level45F1Level40.png,q,exemplar_display,14,20728,dense_left,p,1,False,45,-14.0,14.0
sub_02,714.7999999988824,img/object-9_120-levels_1D/object9F0Level33F1Level40.png,q,exemplar_display,16,23236,dense_left,p,1,False,33,-12.0,12.0
sub_02,671.5,img/object-9_120-levels_1D/object9F0Level67F1Level40.png,p,exemplar_display,18,25744,dense_left,p,1,True,67,34.0,34.0
sub_02,971.0999999996275,img/object-9_120-levels_1D/object9F0Level39F1Level40.png,p,exemplar_display,20,28255,dense_left,p,1,True,39,-28.0,28.0
sub_02,783.5999999996275,img/object-9_120-levels_1D/object9F0Level63F1Level40.png,p,exemplar_display,22,30761,dense_left,p,1,True,63,24.0,24.0
sub_02,831.2000000011176,img/object-9_120-levels_1D/object9F0Level37F1Level40.png,p,exemplar_display,24,33268,dense_left,p,1,True,37,-26.0,26.0
sub_02,615.0,img/object-9_120-levels_1D/object9F0Level49F1Level40.png,p,exemplar_display,26,35778,dense_left,p,1,True,49,12.0,12.0
sub_02,662.0,img/object-9_120-levels_1D/object9F0Level53F1Level40.png,p,exemplar_display,28,38284,dense_left,p,1,True,53,4.0,4.0
sub_02,640.4000000003725,img/object-9_120-levels_1D/object9F0Level55F1Level40.png,p,exemplar_display,30,40792,dense_left,p,1,True,55,2.0,2.0
sub_02,501.40000000037253,img/object-9_120-levels_1D/object9F0Level55F1Level40.png,p,exemplar_display,32,43300,dense_left,q,1,False,55,0.0,0.0
sub_02,1044.4000000003725,img/object-9_120-levels_1D/object9F0Level37F1Level40.png,q,exemplar_display,34,45807,dense_left,p,1,False,37,-18.0,18.0
sub_02,611.9000000003725,img/object-9_120-levels_1D/object9F0Level59F1Level40.png,q,exemplar_display,36,48315,dense_left,p,1,False,59,22.0,22.0
sub_02,849.4000000003725,img/object-9_120-levels_1D/object9F0Level29F1Level40.png,p,exemplar_display,38,50823,dense_left,p,1,True,29,-30.0,30.0
sub_02,1250.0,img/object-9_120-levels_1D/object9F0Level51F1Level40.png,q,exemplar_display,40,53331,dense_left,p,1,False,51,22.0,22.0
sub_02,1027.7999999988824,img/object-9_120-levels_1D/object9F0Level31F1Level40.png,p,exemplar_display,42,55838,dense_left,p,1,True,31,-20.0,20.0
sub_02,756.2000000011176,img/object-9_120-levels_1D/object9F0Level51F1Level40.png,p,exemplar_display,44,58346,dense_left,p,1,True,51,20.0,20.0
sub_02,576.5999999996275,img/object-9_120-levels_1D/object9F0Level51F1Level40.png,q,exemplar_display,46,60854,dense_left,q,1,True,51,0.0,0.0
sub_02,456.80000000074506,img/object-9_120-levels_1D/object9F0Level51F1Level40.png,q,exemplar_display,48,63362,dense_left,q,1,True,51,0.0,0.0
sub_02,552.7000000011176,img/object-9_120-levels_1D/object9F0Level45F1Level40.png,q,exemplar_display,50,65892,dense_left,p,1,False,45,-6.0,6.0
sub_02,570.3999999985099,img/object-9_120-levels_1D/object9F0Level57F1Level40.png,q,exemplar_display,52,68400,dense_left,p,1,False,57,12.0,12.0
sub_02,620.3000000007451,img/object-9_120-levels_1D/object9F0Level39F1Level40.png,q,exemplar_display,54,70908,dense_left,p,1,False,39,-18.0,18.0
sub_02,498.80000000074506,img/object-9_120-levels_1D/object9F0Level41F1Level40.png,q,exemplar_display,56,73416,dense_left,p,1,False,41,2.0,2.0
sub_02,913.5999999996275,img/object-9_120-levels_1D/object9F0Level57F1Level40.png,q,exemplar_display,58,75924,dense_left,p,1,False,57,16.0,16.0
sub_02,776.5999999996275,img/object-9_120-levels_1D/object9F0Level51F1Level40.png,q,exemplar_display,60,78432,dense_left,p,1,False,51,-6.0,6.0
sub_02,564.5,img/object-9_120-levels_1D/object9F0Level33F1Level40.png,q,exemplar_display,62,80945,dense_left,p,1,False,33,-18.0,18.0
sub_02,903.0,img/object-9_120-levels_1D/object9F0Level35F1Level40.png,q,exemplar_display,64,83453,dense_left,p,1,False,35,2.0,2.0
sub_02,954.5,img/object-9_120-levels_1D/object9F0Level53F1Level40.png,p,exemplar_display,66,85961,dense_left,p,1,True,53,18.0,18.0
sub_02,891.5999999996275,img/object-9_120-levels_1D/object9F0Level61F1Level40.png,p,exemplar_display,68,88469,dense_left,p,1,True,61,8.0,8.0
sub_02,826.0999999996275,img/object-9_120-levels_1D/object9F0Level43F1Level40.png,p,exemplar_display,70,90976,dense_left,p,1,True,43,-18.0,18.0
sub_02,563.0999999996275,img/object-9_120-levels_1D/object9F0Level31F1Level40.png,q,exemplar_display,72,93485,dense_left,p,1,False,31,-12.0,12.0
sub_02,713.0,img/object-9_120-levels_1D/object9F0Level59F1Level40.png,p,exemplar_display,74,95992,dense_left,p,1,True,59,28.0,28.0
sub_02,1069.5999999996275,img/object-9_120-levels_1D/object9F0Level61F1Level40.png,q,exemplar_display,76,98500,dense_left,p,1,False,61,2.0,2.0
sub_02,551.0,img/object-9_120-levels_1D/object9F0Level65F1Level40.png,q,exemplar_display,78,101007,dense_left,p,1,False,65,4.0,4.0
sub_02,529.1999999992549,img/object-9_120-levels_1D/object9F0Level67F1Level40.png,q,exemplar_display,80,103515,dense_left,p,1,False,67,2.0,2.0
sub_02,761.6999999992549,img/object-9_120-levels_1D/object9F0Level31F1Level40.png,p,exemplar_display,82,106023,dense_left,p,1,True,31,-36.0,36.0
sub_02,598.5999999996275,img/object-9_120-levels_1D/object9F0Level35F1Level40.png,q,exemplar_display,84,108531,dense_left,p,1,False,35,4.0,4.0
sub_02,,img/object-9_120-levels_1D/object9F0Level57F1Level40.png,,exemplar_display,2,5938,dense_left,p,2,,57,22.0,22.0
sub_02,1129.5,img/object-9_120-levels_1D/object9F0Level55F1Level40.png,q,exemplar_display,4,8444,dense_left,p,2,False,55,-2.0,2.0
sub_02,977.9000000003725,img/object-9_120-levels_1D/object9F0Level29F1Level40.png,q,exemplar_display,6,10953,dense_left,p,2,False,29,-26.0,26.0
sub_02,600.1999999992549,img/object-9_120-levels_1D/object9F0Level67F1Level40.png,p,exemplar_display,8,13461,dense_left,p,2,True,67,38.0,38.0
sub_02,1330.2999999988824,img/object-9_120-levels_1D/object9F0Level53F1Level40.png,q,exemplar_display,10,15968,dense_left,p,2,False,53,-14.0,14.0
sub_02,1275.5,img/object-9_120-levels_1D/object9F0Level33F1Level40.png,p,exemplar_display,12,18473,dense_left,p,2,True,33,-20.0,20.0
sub_02,1284.6000000014901,img/object-9_120-levels_1D/object9F0Level69F1Level40.png,q,exemplar_display,14,20978,dense_left,p,2,False,69,36.0,36.0
sub_02,736.5,img/object-9_120-levels_1D/object9F0Level47F1Level40.png,p,exemplar_display,16,23486,dense_left,p,2,True,47,-22.0,22.0
sub_02,930.0,img/object-9_120-levels_1D/object9F0Level35F1Level40.png,q,exemplar_display,18,25994,dense_left,p,2,False,35,-12.0,12.0
sub_02,645.5,img/object-9_120-levels_1D/object9F0Level39F1Level40.png,q,exemplar_display,20,28501,dense_left,p,2,False,39,4.0,4.0
sub_02,484.90000000037253,img/object-9_120-levels_1D/object9F0Level37F1Level40.png,q,exemplar_display,22,31006,dense_left,p,2,False,37,-2.0,2.0
sub_02,953.5,img/object-9_120-levels_1D/object9F0Level59F1Level40.png,p,exemplar_display,24,33512,dense_left,p,2,True,59,22.0,22.0
sub_02,634.6999999992549,img/object-9_120-levels_1D/object9F0Level41F1Level40.png,q,exemplar_display,26,36024,dense_left,p,2,False,41,-18.0,18.0
sub_02,598.4000000003725,img/object-9_120-levels_1D/object9F0Level61F1Level40.png,p,exemplar_display,28,38537,dense_left,p,2,True,61,20.0,20.0
sub_02,725.4000000003725,img/object-9_120-levels_1D/object9F0Level39F1Level40.png,p,exemplar_display,30,41047,dense_left,p,2,True,39,-22.0,22.0
sub_02,739.5,img/object-9_120-levels_1D/object9F0Level61F1Level40.png,q,exemplar_display,32,43558,dense_left,p,2,False,61,22.0,22.0
sub_02,931.0,img/object-9_120-levels_1D/object9F0Level61F1Level40.png,q,exemplar_display,34,46063,dense_left,q,2,True,61,0.0,0.0
sub_02,879.2999999988824,img/object-9_120-levels_1D/object9F0Level63F1Level40.png,q,exemplar_display,36,48573,dense_left,p,2,False,63,2.0,2.0
sub_02,1778.4000000003725,img/object-9_120-levels_1D/object9F0Level63F1Level40.png,p,exemplar_display,38,51078,dense_left,q,2,False,63,0.0,0.0
sub_02,2302.4000000003725,img/object-9_120-levels_1D/object9F0Level65F1Level40.png,q,exemplar_display,40,53887,dense_left,p,2,False,65,2.0,2.0
sub_02,902.7000000011176,img/object-9_120-levels_1D/object9F0Level39F1Level40.png,q,exemplar_display,42,56396,dense_left,p,2,False,39,-26.0,26.0
sub_02,543.2999999988824,img/object-9_120-levels_1D/object9F0Level39F1Level40.png,q,exemplar_display,44,58906,dense_left,q,2,True,39,0.0,0.0
sub_02,726.5,img/object-9_120-levels_1D/object9F0Level69F1Level40.png,p,exemplar_display,46,61411,dense_left,p,2,True,69,30.0,30.0
sub_02,572.3000000007451,img/object-9_120-levels_1D/object9F0Level69F1Level40.png,p,exemplar_display,48,63919,dense_left,q,2,False,69,0.0,0.0
sub_02,741.7000000011176,img/object-9_120-levels_1D/object9F0Level67F1Level40.png,q,exemplar_display,50,66432,dense_left,p,2,False,67,-2.0,2.0
sub_02,547.1999999992549,img/object-9_120-levels_1D/object9F0Level65F1Level40.png,q,exemplar_display,52,68940,dense_left,p,2,False,65,-2.0,2.0
sub_02,707.5999999996275,img/object-9_120-levels_1D/object9F0Level65F1Level40.png,q,exemplar_display,54,71448,dense_left,q,2,True,65,0.0,0.0
sub_02,564.0,img/object-9_120-levels_1D/object9F0Level67F1Level40.png,q,exemplar_display,56,73956,dense_left,p,2,False,67,2.0,2.0
sub_02,646.9000000003725,img/object-9_120-levels_1D/object9F0Level37F1Level40.png,p,exemplar_display,58,76464,dense_left,p,2,True,37,-30.0,30.0
sub_02,1261.9000000003725,img/object-9_120-levels_1D/object9F0Level67F1Level40.png,q,exemplar_display,60,78971,dense_left,p,2,False,67,30.0,30.0
sub_02,648.8999999985099,img/object-9_120-levels_1D/object9F0Level43F1Level40.png,p,exemplar_display,62,81477,dense_left,p,2,True,43,-24.0,24.0
sub_02,1082.800000000745,img/object-9_120-levels_1D/object9F0Level57F1Level40.png,q,exemplar_display,64,83990,dense_left,p,2,False,57,14.0,14.0
sub_02,710.3000000007451,img/object-9_120-levels_1D/object9F0Level57F1Level40.png,q,exemplar_display,66,86494,dense_left,q,2,True,57,0.0,0.0
sub_02,663.1999999992549,img/object-9_120-levels_1D/object9F0Level43F1Level40.png,q,exemplar_display,68,89002,dense_left,p,2,False,43,-14.0,14.0
sub_02,525.6999999992549,img/object-9_120-levels_1D/object9F0Level31F1Level40.png,q,exemplar_display,70,91510,dense_left,p,2,False,31,-12.0,12.0
sub_02,604.6999999992549,img/object-9_120-levels_1D/object9F0Level31F1Level40.png,q,exemplar_display,72,94039,dense_left,q,2,True,31,0.0,0.0
sub_02,1132.2000000011176,img/object-9_120-levels_1D/object9F0Level67F1Level40.png,p,exemplar_display,74,96549,dense_left,p,2,True,67,36.0,36.0
sub_02,627.1999999992549,img/object-9_120-levels_1D/object9F0Level69F1Level40.png,p,exemplar_display,76,99056,dense_left,p,2,True,69,2.0,2.0
sub_02,1138.4000000003725,img/object-9_120-levels_1D/object9F0Level57F1Level40.png,p,exemplar_display,78,101565,dense_left,p,2,True,57,-12.0,12.0
sub_02,773.5,img/object-9_120-levels_1D/object9F0Level57F1Level40.png,q,exemplar_display,80,104072,dense_left,q,2,True,57,0.0,0.0
sub_02,691.5999999996275,img/object-9_120-levels_1D/object9F0Level69F1Level40.png,p,exemplar_display,82,106580,dense_left,p,2,True,69,12.0,12.0
sub_02,1356.5999999996275,img/object-9_120-levels_1D/object9F0Level69F1Level40.png,q,exemplar_display,84,109092,dense_left,q,2,True,69,0.0,0.0
sub_02,2140.5999999996275,img/object-9_120-levels_1D/object9F0Level59F1Level40.png,p,exemplar_display,2,5019,dense_left,p,3,,59,-10.0,10.0
sub_02,1045.9000000003725,img/object-9_120-levels_1D/object9F0Level55F1Level40.png,q,exemplar_display,4,7527,dense_left,p,3,False,55,-4.0,4.0
sub_02,518.0999999996275,img/object-9_120-levels_1D/object9F0Level43F1Level40.png,q,exemplar_display,6,10037,dense_left,p,3,False,43,-12.0,12.0
sub_02,654.5,img/object-9_120-levels_1D/object9F0Level53F1Level40.png,q,exemplar_display,8,12543,dense_left,p,3,False,53,10.0,10.0
sub_02,1645.5999999996275,img/object-9_120-levels_1D/object9F0Level61F1Level40.png,q,exemplar_display,10,15050,dense_left,p,3,False,61,8.0,8.0
sub_02,616.5,img/object-9_120-levels_1D/object9F0Level61F1Level40.png,q,exemplar_display,12,17558,dense_left,q,3,True,61,0.0,0.0
sub_02,660.5999999996275,img/object-9_120-levels_1D/object9F0Level43F1Level40.png,q,exemplar_display,14,20066,dense_left,p,3,False,43,-18.0,18.0
sub_02,546.9000000003725,img/object-9_120-levels_1D/object9F0Level55F1Level40.png,q,exemplar_display,16,22574,dense_left,p,3,False,55,12.0,12.0
sub_02,561.0,img/object-9_120-levels_1D/object9F0Level59F1Level40.png,q,exemplar_display,18,25083,dense_left,p,3,False,59,4.0,4.0
sub_02,509.0,img/object-9_120-levels_1D/object9F0Level55F1Level40.png,q,exemplar_display,20,27589,dense_left,p,3,False,55,-4.0,4.0
sub_02,1163.7000000011176,img/object-9_120-levels_1D/object9F0Level35F1Level40.png,q,exemplar_display,22,30098,dense_left,p,3,False,35,-20.0,20.0
sub_02,1810.300000000745,img/object-9_120-levels_1D/object9F0Level63F1Level40.png,q,exemplar_display,24,32606,dense_left,p,3,False,63,28.0,28.0
sub_02,1241.5999999996275,img/object-9_120-levels_1D/object9F0Level43F1Level40.png,p,exemplar_display,26,35114,dense_left,p,3,True,43,-20.0,20.0
sub_02,918.8000000007451,img/object-9_120-levels_1D/object9F0Level37F1Level40.png,q,exemplar_display,28,37626,dense_left,p,3,False,37,-6.0,6.0
sub_02,622.0,img/object-9_120-levels_1D/object9F0Level69F1Level40.png,p,exemplar_display,30,40136,dense_left,p,3,True,69,32.0,32.0
sub_02,651.6999999992549,img/object-9_120-levels_1D/object9F0Level37F1Level40.png,q,exemplar_display,32,42643,dense_left,p,3,False,37,-32.0,32.0
sub_02,498.40000000037253,img/object-9_120-levels_1D/object9F0Level37F1Level40.png,q,exemplar_display,34,45151,dense_left,q,3,True,37,0.0,0.0
sub_02,601.0,img/object-9_120-levels_1D/object9F0Level65F1Level40.png,p,exemplar_display,36,47658,dense_left,p,3,True,65,28.0,28.0
sub_02,1019.0999999996275,img/object-9_120-levels_1D/object9F0Level63F1Level40.png,q,exemplar_display,38,50167,dense_left,p,3,False,63,-2.0,2.0
sub_02,802.3000000007451,img/object-9_120-levels_1D/object9F0Level59F1Level40.png,q,exemplar_display,40,52674,dense_left,p,3,False,59,-4.0,4.0
sub_02,785.8999999985099,img/object-9_120-levels_1D/object9F0Level45F1Level40.png,p,exemplar_display,42,55185,dense_left,p,3,True,45,-14.0,14.0
sub_02,976.6000000014901,img/object-9_120-levels_1D/object9F0Level45F1Level40.png,q,exemplar_display,44,57695,dense_left,q,3,True,45,0.0,0.0
sub_02,1095.699999999255,img/object-9_120-levels_1D/object9F0Level51F1Level40.png,q,exemplar_display,46,60203,dense_left,p,3,False,51,6.0,6.0
sub_02,1051.0,img/object-9_120-levels_1D/object9F0Level59F1Level40.png,q,exemplar_display,48,62710,dense_left,p,3,False,59,8.0,8.0
sub_02,700.0,img/object-9_120-levels_1D/object9F0Level59F1Level40.png,q,exemplar_display,50,65219,dense_left,q,3,True,59,0.0,0.0
sub_02,1018.5,img/object-9_120-levels_1D/object9F0Level65F1Level40.png,p,exemplar_display,52,67726,dense_left,p,3,True,65,6.0,6.0
sub_02,607.0,img/object-9_120-levels_1D/object9F0Level41F1Level40.png,q,exemplar_display,54,70234,dense_left,p,3,False,41,-24.0,24.0
sub_02,659.5,img/object-9_120-levels_1D/object9F0Level45F1Level40.png,q,exemplar_display,56,72742,dense_left,p,3,False,45,4.0,4.0
sub_02,789.0999999996275,img/object-9_120-levels_1D/object9F0Level53F1Level40.png,q,exemplar_display,58,75250,dense_left,p,3,False,53,8.0,8.0
sub_02,726.7999999988824,img/object-9_120-levels_1D/object9F0Level53F1Level40.png,q,exemplar_display,60,77757,dense_left,q,3,True,53,0.0,0.0
sub_02,565.7000000011176,img/object-9_120-levels_1D/object9F0Level49F1Level40.png,q,exemplar_display,62,80265,dense_left,p,3,False,49,-4.0,4.0
sub_02,579.5999999996275,img/object-9_120-levels_1D/object9F0Level31F1Level40.png,q,exemplar_display,64,82770,dense_left,p,3,False,31,-18.0,18.0
sub_02,620.2999999988824,img/object-9_120-levels_1D/object9F0Level31F1Level40.png,q,exemplar_display,66,85281,dense_left,q,3,True,31,0.0,0.0
sub_02,893.0,img/object-9_120-levels_1D/object9F0Level63F1Level40.png,p,exemplar_display,68,87789,dense_left,p,3,True,63,32.0,32.0
sub_02,741.0,img/object-9_120-levels_1D/object9F0Level35F1Level40.png,q,exemplar_display,70,90314,dense_left,p,3,False,35,-28.0,28.0
sub_02,716.4000000003725,img/object-9_120-levels_1D/object9F0Level43F1Level40.png,q,exemplar_display,72,92821,dense_left,p,3,False,43,8.0,8.0
sub_02,2222.5,img/object-9_120-levels_1D/object9F0Level57F1Level40.png,q,exemplar_display,74,95551,dense_left,p,3,False,57,14.0,14.0
sub_02,590.8000000007451,img/object-9_120-levels_1D/object9F0Level55F1Level40.png,q,exemplar_display,76,98058,dense_left,p,3,False,55,-2.0,2.0
sub_02,566.1999999992549,img/object-9_120-levels_1D/object9F0Level33F1Level40.png,q,exemplar_display,78,100565,dense_left,p,3,False,33,-22.0,22.0
sub_02,686.9000000003725,img/object-9_120-levels_1D/object9F0Level33F1Level40.png,q,exemplar_display,80,103073,dense_left,q,3,True,33,0.0,0.0
sub_02,482.19999999925494,img/object-9_120-levels_1D/object9F0Level35F1Level40.png,q,exemplar_display,82,105581,dense_left,p,3,False,35,2.0,2.0
sub_02,588.0,img/object-9_120-levels_1D/object9F0Level35F1Level40.png,q,exemplar_display,84,108089,dense_left,q,3,True,35,0.0,0.0
sub_02,2542.0999999996275,img/object-9_120-levels_1D/object9F0Level47F1Level40.png,p,exemplar_display,2,5592,dense_left,p,4,,47,12.0,12.0
sub_02,2645.5,img/object-9_120-levels_1D/object9F0Level67F1Level40.png,p,exemplar_display,4,8742,dense_left,p,4,True,67,20.0,20.0
sub_02,901.3000000007451,img/object-9_120-levels_1D/object9F0Level53F1Level40.png,p,exemplar_display,6,11250,dense_left,p,4,True,53,-14.0,14.0
sub_02,827.8000000007451,img/object-9_120-levels_1D/object9F0Level45F1Level40.png,q,exemplar_display,8,13758,dense_left,p,4,False,45,-8.0,8.0
sub_02,819.6000000014901,img/object-9_120-levels_1D/object9F0Level63F1Level40.png,p,exemplar_display,10,16266,dense_left,p,4,True,63,18.0,18.0
sub_02,655.8000000007451,img/object-9_120-levels_1D/object9F0Level41F1Level40.png,q,exemplar_display,12,18773,dense_left,p,4,False,41,-22.0,22.0
sub_02,557.2999999988824,img/object-9_120-levels_1D/object9F0Level41F1Level40.png,q,exemplar_display,14,21281,dense_left,q,4,True,41,0.0,0.0
sub_02,727.9000000003725,img/object-9_120-levels_1D/object9F0Level41F1Level40.png,q,exemplar_display,16,23786,dense_left,q,4,True,41,0.0,0.0
sub_02,883.1999999992549,img/object-9_120-levels_1D/object9F0Level43F1Level40.png,q,exemplar_display,18,26290,dense_left,p,4,False,43,2.0,2.0
sub_02,564.7000000011176,img/object-9_120-levels_1D/object9F0Level43F1Level40.png,q,exemplar_display,20,28799,dense_left,q,4,True,43,0.0,0.0
sub_02,519.2000000011176,img/object-9_120-levels_1D/object9F0Level57F1Level40.png,q,exemplar_display,22,31308,dense_left,p,4,False,57,14.0,14.0
sub_02,599.1999999992549,img/object-9_120-levels_1D/object9F0Level51F1Level40.png,q,exemplar_display,24,33819,dense_left,p,4,False,51,-6.0,6.0
sub_02,629.7999999988824,img/object-9_120-levels_1D/object9F0Level39F1Level40.png,q,exemplar_display,26,36327,dense_left,p,4,False,39,-12.0,12.0
sub_02,633.6000000014901,img/object-9_120-levels_1D/object9F0Level33F1Level40.png,q,exemplar_display,28,38837,dense_left,p,4,False,33,-6.0,6.0
sub_02,551.7000000011176,img/object-9_120-levels_1D/object9F0Level45F1Level40.png,q,exemplar_display,30,41344,dense_left,p,4,False,45,12.0,12.0
sub_02,985.5,img/object-9_120-levels_1D/object9F0Level41F1Level40.png,q,exemplar_display,32,43852,dense_left,p,4,False,41,-4.0,4.0
sub_02,1220.8999999985099,img/object-9_120-levels_1D/object9F0Level57F1Level40.png,p,exemplar_display,34,46360,dense_left,p,4,True,57,16.0,16.0
sub_02,934.3999999985099,img/object-9_120-levels_1D/object9F0Level47F1Level40.png,q,exemplar_display,36,48874,dense_left,p,4,False,47,-10.0,10.0
sub_02,1504.5,img/object-9_120-levels_1D/object9F0Level49F1Level40.png,q,exemplar_display,38,51381,dense_left,p,4,False,49,2.0,2.0
sub_02,729.3000000007451,img/object-9_120-levels_1D/object9F0Level65F1Level40.png,p,exemplar_display,40,53889,dense_left,p,4,True,65,16.0,16.0
sub_02,854.0999999996275,img/object-9_120-levels_1D/object9F0Level29F1Level40.png,q,exemplar_display,42,56397,dense_left,p,4,False,29,-36.0,36.0
sub_02,859.5,img/object-9_120-levels_1D/object9F0Level45F1Level40.png,p,exemplar_display,44,58905,dense_left,p,4,True,45,16.0,16.0
sub_02,819.7000000011176,img/object-9_120-levels_1D/object9F0Level69F1Level40.png,p,exemplar_display,46,61412,dense_left,p,4,True,69,24.0,24.0
sub_02,1016.5999999996275,img/object-9_120-levels_1D/object9F0Level29F1Level40.png,p,exemplar_display,48,63920,dense_left,p,4,True,29,-40.0,40.0
sub_02,877.0,img/object-9_120-levels_1D/object9F0Level51F1Level40.png,p,exemplar_display,50,66428,dense_left,p,4,True,51,22.0,22.0
sub_02,1003.8999999985099,img/object-9_120-levels_1D/object9F0Level51F1Level40.png,q,exemplar_display,52,68936,dense_left,q,4,True,51,0.0,0.0
sub_02,826.5,img/object-9_120-levels_1D/object9F0Level55F1Level40.png,q,exemplar_display,54,71444,dense_left,p,4,False,55,4.0,4.0
sub_02,582.8000000007451,img/object-9_120-levels_1D/object9F0Level47F1Level40.png,q,exemplar_display,56,73951,dense_left,p,4,False,47,-8.0,8.0
sub_02,749.6999999992549,img/object-9_120-levels_1D/object9F0Level47F1Level40.png,q,exemplar_display,58,76459,dense_left,q,4,True,47,0.0,0.0
sub_02,712.5999999996275,img/object-9_120-levels_1D/object9F0Level53F1Level40.png,q,exemplar_display,60,78967,dense_left,p,4,False,53,6.0,6.0
sub_02,875.2999999988824,img/object-9_120-levels_1D/object9F0Level29F1Level40.png,p,exemplar_display,62,81476,dense_left,p,4,True,29,-24.0,24.0
sub_02,1498.4000000003725,img/object-9_120-levels_1D/object9F0Level29F1Level40.png,q,exemplar_display,64,83982,dense_left,q,4,True,29,0.0,0.0
sub_02,825.4000000003725,img/object-9_120-levels_1D/object9F0Level53F1Level40.png,p,exemplar_display,66,86490,dense_left,p,4,True,53,24.0,24.0
sub_02,2157.199999999255,img/object-9_120-levels_1D/object9F0Level53F1Level40.png,q,exemplar_display,68,89154,dense_left,q,4,True,53,0.0,0.0
sub_02,1142.2000000011176,img/object-9_120-levels_1D/object9F0Level47F1Level40.png,q,exemplar_display,70,91662,dense_left,p,4,False,47,-6.0,6.0
sub_02,513.7000000011176,img/object-9_120-levels_1D/object9F0Level49F1Level40.png,p,exemplar_display,72,94170,dense_left,p,4,True,49,2.0,2.0
sub_02,1135.2000000011176,img/object-9_120-levels_1D/object9F0Level29F1Level40.png,p,exemplar_display,74,96678,dense_left,p,4,True,29,-20.0,20.0
sub_02,1503.2999999988824,img/object-9_120-levels_1D/object9F0Level29F1Level40.png,p,exemplar_display,76,99191,dense_left,q,4,False,29,0.0,0.0
sub_02,858.2999999988824,img/object-9_120-levels_1D/object9F0Level49F1Level40.png,q,exemplar_display,78,101699,dense_left,p,4,False,49,20.0,20.0
sub_02,740.7000000011176,img/object-9_120-levels_1D/object9F0Level63F1Level40.png,p,exemplar_display,80,104207,dense_left,p,4,True,63,14.0,14.0
sub_02,805.7999999988824,img/object-9_120-levels_1D/object9F0Level63F1Level40.png,q,exemplar_display,82,106715,dense_left,q,4,True,63,0.0,0.0
sub_02,689.5,img/object-9_120-levels_1D/object9F0Level49F1Level40.png,p,exemplar_display,84,109242,dense_left,p,4,True,49,-14.0,14.0
sub_02,826.8000000007451,img/object-9_120-levels_1D/object9F0Level45F1Level40.png,p,exemplar_display,2,5018,dense_left,p,5,,45,-4.0,4.0
sub_02,918.3000000007451,img/object-9_120-levels_1D/object9F0Level35F1Level40.png,q,exemplar_display,4,7526,dense_left,p,5,False,35,-10.0,10.0
sub_02,696.4000000003725,img/object-9_120-levels_1D/object9F0Level35F1Level40.png,q,exemplar_display,6,10034,dense_left,q,5,True,35,0.0,0.0
sub_02,637.6000000014901,img/object-9_120-levels_1D/object9F0Level45F1Level40.png,q,exemplar_display,8,12542,dense_left,p,5,False,45,10.0,10.0
sub_02,752.1000000014901,img/object-9_120-levels_1D/object9F0Level37F1Level40.png,q,exemplar_display,10,15049,dense_left,p,5,False,37,-8.0,8.0
sub_02,877.0,img/object-9_120-levels_1D/object9F0Level31F1Level40.png,q,exemplar_display,12,17559,dense_left,p,5,False,31,-6.0,6.0
sub_02,986.0999999996275,img/object-9_120-levels_1D/object9F0Level69F1Level40.png,p,exemplar_display,14,20065,dense_left,p,5,True,69,38.0,38.0
sub_02,838.5,img/object-9_120-levels_1D/object9F0Level33F1Level40.png,p,exemplar_display,16,22573,dense_left,p,5,True,33,-36.0,36.0
sub_02,1218.2000000011176,img/object-9_120-levels_1D/object9F0Level49F1Level40.png,p,exemplar_display,18,25081,dense_left,p,5,True,49,16.0,16.0
sub_02,907.7000000011176,img/object-9_120-levels_1D/object9F0Level49F1Level40.png,p,exemplar_display,20,27588,dense_left,q,5,False,49,0.0,0.0
sub_02,1317.0,img/object-9_120-levels_1D/object9F0Level37F1Level40.png,p,exemplar_display,22,30098,dense_left,p,5,True,37,-12.0,12.0
sub_02,649.8000000007451,img/object-9_120-levels_1D/object9F0Level37F1Level40.png,q,exemplar_display,24,32605,dense_left,q,5,True,37,0.0,0.0
sub_02,1223.0,img/object-9_120-levels_1D/object9F0Level55F1Level40.png,p,exemplar_display,26,35113,dense_left,p,5,True,55,18.0,18.0
sub_02,953.0999999996275,img/object-9_120-levels_1D/object9F0Level55F1Level40.png,q,exemplar_display,28,37625,dense_left,q,5,True,55,0.0,0.0
sub_02,925.5999999996275,img/object-9_120-levels_1D/object9F0Level31F1Level40.png,p,exemplar_display,30,40134,dense_left,p,5,True,31,-24.0,24.0
sub_02,649.6999999992549,img/object-9_120-levels_1D/object9F0Level67F1Level40.png,p,exemplar_display,32,42642,dense_left,p,5,True,67,36.0,36.0
sub_02,725.2000000011176,img/object-9_120-levels_1D/object9F0Level31F1Level40.png,p,exemplar_display,34,45150,dense_left,p,5,True,31,-36.0,36.0
sub_02,840.6999999992549,img/object-9_120-levels_1D/object9F0Level39F1Level40.png,q,exemplar_display,36,47658,dense_left,p,5,False,39,8.0,8.0
sub_02,775.2000000011176,img/object-9_120-levels_1D/object9F0Level39F1Level40.png,q,exemplar_display,38,50166,dense_left,q,5,True,39,0.0,0.0
sub_02,901.2999999988824,img/object-9_120-levels_1D/object9F0Level29F1Level40.png,q,exemplar_display,40,52673,dense_left,p,5,False,29,-10.0,10.0
sub_02,697.4000000003725,img/object-9_120-levels_1D/object9F0Level69F1Level40.png,p,exemplar_display,42,55183,dense_left,p,5,True,69,40.0,40.0
sub_02,1267.800000000745,img/object-9_120-levels_1D/object9F0Level47F1Level40.png,p,exemplar_display,44,57689,dense_left,p,5,True,47,-22.0,22.0
sub_02,1069.9000000003725,img/object-9_120-levels_1D/object9F0Level41F1Level40.png,p,exemplar_display,46,60197,dense_left,p,5,True,41,-6.0,6.0
sub_02,1097.5999999996275,img/object-9_120-levels_1D/object9F0Level41F1Level40.png,q,exemplar_display,48,62704,dense_left,q,5,True,41,0.0,0.0
sub_02,564.7000000011176,img/object-9_120-levels_1D/object9F0Level65F1Level40.png,p,exemplar_display,50,65212,dense_left,p,5,True,65,24.0,24.0
sub_02,1324.9000000003725,img/object-9_120-levels_1D/object9F0Level65F1Level40.png,q,exemplar_display,52,67720,dense_left,q,5,True,65,0.0,0.0
sub_02,717.6000000014901,img/object-9_120-levels_1D/object9F0Level49F1Level40.png,p,exemplar_display,54,70228,dense_left,p,5,True,49,-16.0,16.0
sub_02,1091.7000000011176,img/object-9_120-levels_1D/object9F0Level43F1Level40.png,p,exemplar_display,56,72735,dense_left,p,5,True,43,-6.0,6.0
sub_02,806.6000000014901,img/object-9_120-levels_1D/object9F0Level61F1Level40.png,p,exemplar_display,58,75243,dense_left,p,5,True,61,18.0,18.0
sub_02,900.6999999992549,img/object-9_120-levels_1D/object9F0Level39F1Level40.png,p,exemplar_display,60,77751,dense_left,p,5,True,39,-22.0,22.0
sub_02,715.9000000003725,img/object-9_120-levels_1D/object9F0Level65F1Level40.png,p,exemplar_display,62,80259,dense_left,p,5,True,65,26.0,26.0
sub_02,1233.0,img/object-9_120-levels_1D/object9F0Level51F1Level40.png,p,exemplar_display,64,82766,dense_left,p,5,True,51,-14.0,14.0
sub_02,1330.4000000003725,img/object-9_120-levels_1D/object9F0Level33F1Level40.png,p,exemplar_display,66,85274,dense_left,p,5,True,33,-18.0,18.0
sub_02,802.1999999992549,img/object-9_120-levels_1D/object9F0Level33F1Level40.png,p,exemplar_display,68,87782,dense_left,q,5,False,33,0.0,0.0
sub_02,698.7999999988824,img/object-9_120-levels_1D/object9F0Level63F1Level40.png,p,exemplar_display,70,90290,dense_left,p,5,True,63,30.0,30.0
sub_02,608.7000000011176,img/object-9_120-levels_1D/object9F0Level61F1Level40.png,q,exemplar_display,72,92821,dense_left,p,5,False,61,-2.0,2.0
sub_02,733.6999999992549,img/object-9_120-levels_1D/object9F0Level47F1Level40.png,p,exemplar_display,74,95328,dense_left,p,5,True,47,-14.0,14.0
sub_02,762.3000000007451,img/object-9_120-levels_1D/object9F0Level49F1Level40.png,q,exemplar_display,76,97836,dense_left,p,5,False,49,2.0,2.0
sub_02,1063.0,img/object-9_120-levels_1D/object9F0Level29F1Level40.png,p,exemplar_display,78,100344,dense_left,p,5,True,29,-20.0,20.0
sub_02,935.4000000003725,img/object-9_120-levels_1D/object9F0Level41F1Level40.png,q,exemplar_display,80,102852,dense_left,p,5,False,41,12.0,12.0
sub_02,715.4000000003725,img/object-9_120-levels_1D/object9F0Level47F1Level40.png,q,exemplar_display,82,105360,dense_left,p,5,False,47,6.0,6.0
sub_02,1145.5,img/object-9_120-levels_1D/object9F0Level47F1Level40.png,q,exemplar_display,84,107867,dense_left,q,5,True,47,0.0,0.0
sub_03,1404.199999988079,img/object-9_120-levels_1D/object9F0Level87F1Level40.png,q,exemplar_display,2,7568,dense_right,,1,,87,,
sub_03,,img/object-9_120-levels_1D/object9F0Level93F1Level40.png,,exemplar_display,4,11088,dense_right,p,1,False,93,6.0,6.0
sub_03,2041.699999988079,img/object-9_120-levels_1D/object9F0Level107F1Level40.png,q,exemplar_display,6,13654,dense_right,p,1,False,107,14.0,14.0
sub_03,1066.1000000238419,img/object-9_120-levels_1D/object9F0Level87F1Level40.png,q,exemplar_display,8,16188,dense_right,p,1,False,87,-20.0,20.0
sub_03,1031.5,img/object-9_120-levels_1D/object9F0Level87F1Level40.png,q,exemplar_display,10,18729,dense_right,q,1,True,87,0.0,0.0
sub_03,805.3000000119209,img/object-9_120-levels_1D/object9F0Level107F1Level40.png,q,exemplar_display,12,21258,dense_right,p,1,False,107,20.0,20.0
sub_03,1296.199999988079,img/object-9_120-levels_1D/object9F0Level107F1Level40.png,q,exemplar_display,14,23798,dense_right,q,1,True,107,0.0,0.0
sub_03,1389.1000000238419,img/object-9_120-levels_1D/object9F0Level105F1Level40.png,q,exemplar_display,16,26338,dense_right,p,1,False,105,-2.0,2.0
sub_03,1221.4000000357628,img/object-9_120-levels_1D/object9F0Level111F1Level40.png,q,exemplar_display,18,28868,dense_right,p,1,False,111,6.0,6.0
sub_03,870.5999999642372,img/object-9_120-levels_1D/object9F0Level115F1Level40.png,q,exemplar_display,20,31390,dense_right,p,1,False,115,4.0,4.0
sub_03,510.10000002384186,img/object-9_120-levels_1D/object9F0Level115F1Level40.png,q,exemplar_display,22,33895,dense_right,q,1,True,115,0.0,0.0
sub_03,557.0999999642372,img/object-9_120-levels_1D/object9F0Level115F1Level40.png,q,exemplar_display,24,36408,dense_right,q,1,True,115,0.0,0.0
sub_03,620.0999999642372,img/object-9_120-levels_1D/object9F0Level115F1Level40.png,q,exemplar_display,26,38914,dense_right,q,1,True,115,0.0,0.0
sub_03,582.5,img/object-9_120-levels_1D/object9F0Level105F1Level40.png,q,exemplar_display,28,41423,dense_right,p,1,False,105,-10.0,10.0
sub_03,677.8000000119209,img/object-9_120-levels_1D/object9F0Level101F1Level40.png,q,exemplar_display,30,43927,dense_right,p,1,False,101,-4.0,4.0
sub_03,1229.300000011921,img/object-9_120-levels_1D/object9F0Level103F1Level40.png,q,exemplar_display,32,46433,dense_right,p,1,False,103,2.0,2.0
sub_03,540.5,img/object-9_120-levels_1D/object9F0Level103F1Level40.png,q,exemplar_display,34,48937,dense_right,q,1,True,103,0.0,0.0
sub_03,669.5999999642372,img/object-9_120-levels_1D/object9F0Level101F1Level40.png,q,exemplar_display,36,51442,dense_right,p,1,False,101,-2.0,2.0
sub_03,778.6000000238419,img/object-9_120-levels_1D/object9F0Level93F1Level40.png,q,exemplar_display,38,53946,dense_right,p,1,False,93,-8.0,8.0
sub_03,514.9000000357628,img/object-9_120-levels_1D/object9F0Level113F1Level40.png,q,exemplar_display,40,56459,dense_right,p,1,False,113,20.0,20.0
sub_03,504.89999997615814,img/object-9_120-levels_1D/object9F0Level93F1Level40.png,q,exemplar_display,42,58964,dense_right,p,1,False,93,-20.0,20.0
sub_03,474.5,img/object-9_120-levels_1D/object9F0Level81F1Level40.png,q,exemplar_display,44,61474,dense_right,p,1,False,81,-12.0,12.0
sub_03,1258.300000011921,img/object-9_120-levels_1D/object9F0Level97F1Level40.png,q,exemplar_display,46,63979,dense_right,p,1,False,97,16.0,16.0
sub_03,1002.2999999523163,img/object-9_120-levels_1D/object9F0Level79F1Level40.png,p,exemplar_display,48,66484,dense_right,p,1,True,79,-18.0,18.0
sub_03,1361.5,img/object-9_120-levels_1D/object9F0Level79F1Level40.png,q,exemplar_display,50,68987,dense_right,q,1,True,79,0.0,0.0
sub_03,1172.8999999761581,img/object-9_120-levels_1D/object9F0Level105F1Level40.png,p,exemplar_display,52,71492,dense_right,p,1,True,105,26.0,26.0
sub_03,1368.8999999761581,img/object-9_120-levels_1D/object9F0Level91F1Level40.png,q,exemplar_display,54,73997,dense_right,p,1,False,91,-14.0,14.0
sub_03,1879.2999999523163,img/object-9_120-levels_1D/object9F0Level111F1Level40.png,q,exemplar_display,56,76505,dense_right,p,1,False,111,20.0,20.0
sub_03,1052.0,img/object-9_120-levels_1D/object9F0Level91F1Level40.png,p,exemplar_display,58,79009,dense_right,p,1,True,91,-20.0,20.0
sub_03,1627.0,img/object-9_120-levels_1D/object9F0Level83F1Level40.png,p,exemplar_display,60,81514,dense_right,p,1,True,83,-8.0,8.0
sub_03,1196.300000011921,img/object-9_120-levels_1D/object9F0Level115F1Level40.png,p,exemplar_display,62,84029,dense_right,p,1,True,115,32.0,32.0
sub_03,960.1999999880791,img/object-9_120-levels_1D/object9F0Level95F1Level40.png,q,exemplar_display,64,86533,dense_right,p,1,False,95,-20.0,20.0
sub_03,695.6000000238419,img/object-9_120-levels_1D/object9F0Level105F1Level40.png,q,exemplar_display,66,89037,dense_right,p,1,False,105,10.0,10.0
sub_03,784.1999999880791,img/object-9_120-levels_1D/object9F0Level97F1Level40.png,q,exemplar_display,68,91541,dense_right,p,1,False,97,-8.0,8.0
sub_03,1214.8999999761581,img/object-9_120-levels_1D/object9F0Level85F1Level40.png,q,exemplar_display,70,94045,dense_right,p,1,False,85,-12.0,12.0
sub_03,751.5,img/object-9_120-levels_1D/object9F0Level93F1Level40.png,q,exemplar_display,72,96549,dense_right,p,1,False,93,8.0,8.0
sub_03,744.0,img/object-9_120-levels_1D/object9F0Level93F1Level40.png,q,exemplar_display,74,99054,dense_right,q,1,True,93,0.0,0.0
sub_03,654.5,img/object-9_120-levels_1D/object9F0Level95F1Level40.png,q,exemplar_display,76,101559,dense_right,p,1,False,95,2.0,2.0
sub_03,645.0999999642372,img/object-9_120-levels_1D/object9F0Level101F1Level40.png,q,exemplar_display,78,104071,dense_right,p,1,False,101,6.0,6.0
sub_03,717.4000000357628,img/object-9_120-levels_1D/object9F0Level79F1Level40.png,p,exemplar_display,80,106575,dense_right,p,1,True,79,-22.0,22.0
sub_03,1175.0,img/object-9_120-levels_1D/object9F0Level79F1Level40.png,q,exemplar_display,82,109078,dense_right,q,1,True,79,0.0,0.0
sub_03,960.3999999761581,img/object-9_120-levels_1D/object9F0Level115F1Level40.png,p,exemplar_display,84,111588,dense_right,p,1,True,115,36.0,36.0
sub_03,,img/object-9_120-levels_1D/object9F0Level97F1Level40.png,,exemplar_display,2,9662,dense_right,p,2,,97,-18.0,18.0
sub_03,2432.399999976158,img/object-9_120-levels_1D/object9F0Level111F1Level40.png,p,exemplar_display,4,12616,dense_right,p,2,True,111,14.0,14.0
sub_03,1023.8999999761581,img/object-9_120-levels_1D/object9F0Level109F1Level40.png,q,exemplar_display,6,15151,dense_right,p,2,False,109,-2.0,2.0
sub_03,675.6000000238419,img/object-9_120-levels_1D/object9F0Level79F1Level40.png,p,exemplar_display,8,17681,dense_right,p,2,True,79,-30.0,30.0
sub_03,1033.7000000476837,img/object-9_120-levels_1D/object9F0Level83F1Level40.png,q,exemplar_display,10,20221,dense_right,p,2,False,83,4.0,4.0
sub_03,1206.1000000238419,img/object-9_120-levels_1D/object9F0Level83F1Level40.png,q,exemplar_display,12,22761,dense_right,q,2,True,83,0.0,0.0
sub_03,1274.0,img/object-9_120-levels_1D/object9F0Level99F1Level40.png,p,exemplar_display,14,25301,dense_right,p,2,True,99,16.0,16.0
sub_03,1007.3000000119209,img/object-9_120-levels_1D/object9F0Level107F1Level40.png,q,exemplar_display,16,27831,dense_right,p,2,False,107,8.0,8.0
sub_03,660.8000000119209,img/object-9_120-levels_1D/object9F0Level105F1Level40.png,q,exemplar_display,18,30355,dense_right,p,2,False,105,-2.0,2.0
sub_03,714.6000000238419,img/object-9_120-levels_1D/object9F0Level117F1Level40.png,q,exemplar_display,20,32859,dense_right,p,2,False,117,12.0,12.0
sub_03,905.2000000476837,img/object-9_120-levels_1D/object9F0Level83F1Level40.png,p,exemplar_display,22,35364,dense_right,p,2,True,83,-34.0,34.0
sub_03,1097.5,img/object-9_120-levels_1D/object9F0Level83F1Level40.png,q,exemplar_display,24,37869,dense_right,q,2,True,83,0.0,0.0
sub_03,920.2999999523163,img/object-9_120-levels_1D/object9F0Level109F1Level40.png,p,exemplar_display,26,40372,dense_right,p,2,True,109,26.0,26.0
sub_03,818.0,img/object-9_120-levels_1D/object9F0Level99F1Level40.png,q,exemplar_display,28,42876,dense_right,p,2,False,99,-10.0,10.0
sub_03,769.1000000238419,img/object-9_120-levels_1D/object9F0Level113F1Level40.png,q,exemplar_display,30,45381,dense_right,p,2,False,113,14.0,14.0
sub_03,671.2000000476837,img/object-9_120-levels_1D/object9F0Level77F1Level40.png,p,exemplar_display,32,47886,dense_right,p,2,True,77,-36.0,36.0
sub_03,641.6000000238419,img/object-9_120-levels_1D/object9F0Level87F1Level40.png,q,exemplar_display,34,50397,dense_right,p,2,False,87,10.0,10.0
sub_03,728.6000000238419,img/object-9_120-levels_1D/object9F0Level99F1Level40.png,q,exemplar_display,36,52901,dense_right,p,2,False,99,12.0,12.0
sub_03,712.1999999880791,img/object-9_120-levels_1D/object9F0Level99F1Level40.png,q,exemplar_display,38,55405,dense_right,q,2,True,99,0.0,0.0
sub_03,640.3999999761581,img/object-9_120-levels_1D/object9F0Level101F1Level40.png,q,exemplar_display,40,57909,dense_right,p,2,False,101,2.0,2.0
sub_03,624.3999999761581,img/object-9_120-levels_1D/object9F0Level81F1Level40.png,p,exemplar_display,42,60414,dense_right,p,2,True,81,-20.0,20.0
sub_03,696.1999999880791,img/object-9_120-levels_1D/object9F0Level113F1Level40.png,q,exemplar_display,44,62917,dense_right,p,2,False,113,32.0,32.0
sub_03,1359.0,img/object-9_120-levels_1D/object9F0Level91F1Level40.png,q,exemplar_display,46,65422,dense_right,p,2,False,91,-22.0,22.0
sub_03,935.5,img/object-9_120-levels_1D/object9F0Level107F1Level40.png,q,exemplar_display,48,67927,dense_right,p,2,False,107,16.0,16.0
sub_03,984.8999999761581,img/object-9_120-levels_1D/object9F0Level109F1Level40.png,q,exemplar_display,50,70436,dense_right,p,2,False,109,2.0,2.0
sub_03,889.8999999761581,img/object-9_120-levels_1D/object9F0Level105F1Level40.png,q,exemplar_display,52,72940,dense_right,p,2,False,105,-4.0,4.0
sub_03,656.8000000119209,img/object-9_120-levels_1D/object9F0Level105F1Level40.png,q,exemplar_display,54,75445,dense_right,q,2,True,105,0.0,0.0
sub_03,615.8999999761581,img/object-9_120-levels_1D/object9F0Level109F1Level40.png,q,exemplar_display,56,77950,dense_right,p,2,False,109,4.0,4.0
sub_03,633.0,img/object-9_120-levels_1D/object9F0Level109F1Level40.png,q,exemplar_display,58,80455,dense_right,q,2,True,109,0.0,0.0
sub_03,654.6000000238419,img/object-9_120-levels_1D/object9F0Level85F1Level40.png,p,exemplar_display,60,82959,dense_right,p,2,True,85,-24.0,24.0
sub_03,757.5,img/object-9_120-levels_1D/object9F0Level111F1Level40.png,q,exemplar_display,62,85465,dense_right,p,2,False,111,26.0,26.0
