prolific_id,pilot_paradigm,counterbalancing,query_stimulus,ref_left_stimulus,ref_right_stimulus,ref_left_y_offset,ref_right_y_offset,rt,response,trial_stage,trial_index,time_elapsed,session,correct,correct_response,query_item,ref_left,ref_right,dist_query_ref_left,dist_query_ref_right,dist_ref_left_ref_right,abs_dist_query_ref_left,abs_dist_query_ref_right,abs_dist_ref_left_ref_right,triplet_left_right_name,ref_lowdim,ref_highdim,dist_query_ref_lowdim,dist_query_ref_highdim,dist_ref_lowdim_ref_highdim,dist_abs_query_ref_lowdim,dist_abs_query_ref_highdim,dist_abs_ref_lowdim_ref_highdim,triplet_unique_name,template_distances,template_abs_distances,triplet_rep,template_distances_rep,template_abs_distances_rep,triplet_easiness,query_position,curve_type,chosen_ref_value,chosen_ref_lowdim_highdim,chose_towards_sparse,chose_towards_highdim,chosen_ref_numeric,correct_ref_lowdim_highdim,correct_ref_left_right,correct_numeric,triplet_location,density_relative_triplet_name,correct_ref_towards_dense_sparse
sub_01,1,dense_left,img/object-9_120-levels_1D/object9F0Level37F1Level40.png,img/object-9_120-levels_1D/object9F0Level109F1Level40.png,img/object-9_120-levels_1D/object9F0Level29F1Level40.png,0,0,1478.5,p,practice,1,2876,1,True,p,38,110,30,-72,8,80,72,8,80,38_110_30,30,110,8,-72,-80,8,72,80,38_30_110,8_-72_-80,8_72_80,1,1,1,64,query_middle,concave,30.0,ref_lowdim,0,0.0,1,ref_lowdim,ref_right,1.0,dense_region,110_38_118,ref_towards_dense
sub_01,1,dense_left,img/object-9_120-levels_1D/object9F0Level101F1Level40.png,img/object-9_120-levels_1D/object9F0Level109F1Level40.png,img/object-9_120-levels_1D/object9F0Level85F1Level40.png,0,0,2332.099999964237,q,practice,2,5715,1,True,q,102,110,86,-8,16,24,8,16,24,102_110_86,86,110,16,-8,-24,16,8,24,102_86_110,16_-8_-24,8_16_24,1,1,1,8,query_middle,convex,110.0,ref_highdim,1,1.0,2,ref_highdim,ref_left,1.0,sparse_region,46_38_62,ref_towards_sparse
sub_01,1,dense_left,img/object-9_120-levels_1D/object9F0Level85F1Level40.png,img/object-9_120-levels_1D/object9F0Level45F1Level40.png,img/object-9_120-levels_1D/object9F0Level109F1Level40.png,0,0,1272.5,p,practice,3,8223,1,True,p,86,46,110,40,-24,-64,40,24,64,86_46_110,46,110,40,-24,-64,40,24,64,86_46_110,40_-24_-64,24_40_64,1,1,1,16,query_middle,convex,110.0,ref_highdim,1,1.0,2,ref_highdim,ref_right,1.0,sparse_region,62_38_102,ref_towards_sparse
sub_01,1,dense_left,img/object-9_120-levels_1D/object9F0Level61F1Level40.png,img/object-9_120-levels_1D/object9F0Level101F1Level40.png,img/object-9_120-levels_1D/object9F0Level29F1Level40.png,0,0,2420.0,q,practice,4,11145,1,False,p,62,102,30,-40,32,72,40,32,72,62_102_30,30,102,32,-40,-72,32,40,72,62_30_102,32_-40_-72,32_40_72,1,1,1,8,query_middle,concave,102.0,ref_highdim,1,1.0,2,ref_lowdim,ref_right,0.0,dense_region,86_46_118,ref_towards_dense
sub_01,1,dense_left,img/object-9_120-levels_1D/object9F0Level101F1Level40.png,img/object-9_120-levels_1D/object9F0Level109F1Level40.png,img/object-9_120-levels_1D/object9F0Level37F1Level40.png,0,0,1188.0,q,practice,5,13650,1,True,q,102,110,38,-8,64,72,8,64,72,102_110_38,38,110,64,-8,-72,64,8,72,102_38_110,64_-8_-72,8_64_72,1,1,1,56,query_middle,convex,110.0,ref_highdim,1,1.0,2,ref_highdim,ref_left,1.0,sparse_region,46_38_110,ref_towards_sparse
sub_01,1,dense_left,img/object-9_120-levels_1D/object9F0Level77F1Level40.png,img/object-9_120-levels_1D/object9F0Level117F1Level40.png,img/object-9_120-levels_1D/object9F0Level29F1Level40.png,0,0,1879.800000011921,q,practice,6,16156,1,True,q,78,118,30,-40,48,88,40,48,88,78_118_30,30,118,48,-40,-88,48,40,88,78_30_118,48_-40_-88,40_48_88,1,1,1,8,query_middle,convex,118.0,ref_highdim,1,1.0,2,ref_highdim,ref_left,1.0,sparse_region,70_30_118,ref_towards_sparse
sub_01,1,dense_left,img/object-9_120-levels_1D/object9F0Level109F1Level40.png,img/object-9_120-levels_1D/object9F0Level101F1Level40.png,img/object-9_120-levels_1D/object9F0Level117F1Level40.png,0,0,2381.699999988079,p,practice,7,19043,1,,,110,102,118,8,-8,-16,8,8,16,110_102_118,102,118,8,-8,-16,8,8,16,110_102_118,8_-8_-16,8_8_16,1,1,1,0,query_middle,convex,118.0,ref_highdim,1,1.0,2,nan,nan,,sparse_region,38_30_46,nan
sub_01,1,dense_left,img/object-9_120-levels_1D/object9F0Level101F1Level40.png,img/object-9_120-levels_1D/object9F0Level117F1Level40.png,img/object-9_120-levels_1D/object9F0Level37F1Level40.png,0,0,1395.699999988079,q,practice,8,21553,1,True,q,102,118,38,-16,64,80,16,64,80,102_118_38,38,118,64,-16,-80,64,16,80,102_38_118,64_-16_-80,16_64_80,1,1,1,48,query_middle,convex,118.0,ref_highdim,1,1.0,2,ref_highdim,ref_left,1.0,sparse_region,46_30_110,ref_towards_sparse
sub_01,1,dense_left,img/object-9_120-levels_1D/object9F0Level109F1Level40.png,img/object-9_120-levels_1D/object9F0Level117F1Level40.png,img/object-9_120-levels_1D/object9F0Level101F1Level40.png,0,0,2041.0,q,practice,9,24099,1,,,110,118,102,-8,8,16,8,8,16,110_118_102,102,118,8,-8,-16,8,8,16,110_102_118,8_-8_-16,8_8_16,2,2,2,0,query_middle,convex,118.0,ref_highdim,1,1.0,2,nan,nan,,sparse_region,38_30_46,nan
sub_01,1,dense_left,img/object-9_120-levels_1D/object9F0Level101F1Level40.png,img/object-9_120-levels_1D/object9F0Level37F1Level40.png,img/object-9_120-levels_1D/object9F0Level109F1Level40.png,0,0,1336.699999988079,p,practice,10,26611,1,True,p,102,38,110,64,-8,-72,64,8,72,102_38_110,38,110,64,-8,-72,64,8,72,102_38_110,64_-8_-72,8_64_72,2,2,2,56,query_middle,convex,110.0,ref_highdim,1,1.0,2,ref_highdim,ref_right,1.0,sparse_region,46_38_110,ref_towards_sparse
sub_01,1,dense_left,img/object-9_120-levels_1D/object9F0Level37F1Level40.png,img/object-9_120-levels_1D/object9F0Level45F1Level40.png,img/object-9_120-levels_1D/object9F0Level29F1Level40.png,0,0,1630.3999999761581,p,practice,11,29120,1,,,38,46,30,-8,8,16,8,8,16,38_46_30,30,46,8,-8,-16,8,8,16,38_30_46,8_-8_-16,8_8_16,1,3,3,0,query_middle,concave,30.0,ref_lowdim,0,0.0,1,nan,nan,,dense_region,110_102_118,nan
sub_01,1,dense_left,img/object-9_120-levels_1D/object9F0Level85F1Level40.png,img/object-9_120-levels_1D/object9F0Level109F1Level40.png,img/object-9_120-levels_1D/object9F0Level45F1Level40.png,0,0,803.8000000119209,q,practice,12,31625,1,True,q,86,110,46,-24,40,64,24,40,64,86_110_46,46,110,40,-24,-64,40,24,64,86_46_110,40_-24_-64,24_40_64,2,2,2,16,query_middle,convex,110.0,ref_highdim,1,1.0,2,ref_highdim,ref_left,1.0,sparse_region,62_38_102,ref_towards_sparse
sub_01,1,dense_left,img/object-9_120-levels_1D/object9F0Level101F1Level40.png,img/object-9_120-levels_1D/object9F0Level37F1Level40.png,img/object-9_120-levels_1D/object9F0Level117F1Level40.png,0,0,1054.0999999642372,p,practice,13,34132,1,True,p,102,38,118,64,-16,-80,64,16,80,102_38_118,38,118,64,-16,-80,64,16,80,102_38_118,64_-16_-80,16_64_80,2,2,2,48,query_middle,convex,118.0,ref_highdim,1,1.0,2,ref_highdim,ref_right,1.0,sparse_region,46_30_110,ref_towards_sparse
sub_01,1,dense_left,img/object-9_120-levels_1D/object9F0Level37F1Level40.png,img/object-9_120-levels_1D/object9F0Level29F1Level40.png,img/object-9_120-levels_1D/object9F0Level45F1Level40.png,0,0,1790.3999999761581,p,practice,14,36638,1,,,38,30,46,8,-8,-16,8,8,16,38_30_46,30,46,8,-8,-16,8,8,16,38_30_46,8_-8_-16,8_8_16,2,4,4,0,query_middle,concave,46.0,ref_highdim,1,1.0,2,nan,nan,,dense_region,110_102_118,nan
sub_01,1,dense_left,img/object-9_120-levels_1D/object9F0Level85F1Level40.png,img/object-9_120-levels_1D/object9F0Level37F1Level40.png,img/object-9_120-levels_1D/object9F0Level117F1Level40.png,0,0,1027.199999988079,p,practice,15,39145,1,True,p,86,38,118,48,-32,-80,48,32,80,86_38_118,38,118,48,-32,-80,48,32,80,86_38_118,48_-32_-80,32_48_80,1,1,1,16,query_middle,convex,118.0,ref_highdim,1,1.0,2,ref_highdim,ref_right,1.0,sparse_region,62_30_110,ref_towards_sparse
sub_01,1,dense_left,img/object-9_120-levels_1D/object9F0Level101F1Level40.png,img/object-9_120-levels_1D/object9F0Level85F1Level40.png,img/object-9_120-levels_1D/object9F0Level109F1Level40.png,0,0,1401.0999999642372,p,practice,16,41652,1,True,p,102,86,110,16,-8,-24,16,8,24,102_86_110,86,110,16,-8,-24,16,8,24,102_86_110,16_-8_-24,8_16_24,2,2,2,8,query_middle,convex,110.0,ref_highdim,1,1.0,2,ref_highdim,ref_right,1.0,sparse_region,46_38_62,ref_towards_sparse
sub_01,1,dense_left,img/object-9_120-levels_1D/object9F0Level61F1Level40.png,img/object-9_120-levels_1D/object9F0Level29F1Level40.png,img/object-9_120-levels_1D/object9F0Level101F1Level40.png,0,0,1628.800000011921,q,practice,17,44159,1,True,q,62,30,102,32,-40,-72,32,40,72,62_30_102,30,102,32,-40,-72,32,40,72,62_30_102,32_-40_-72,32_40_72,2,2,2,8,query_middle,concave,30.0,ref_lowdim,0,0.0,1,ref_lowdim,ref_left,1.0,dense_region,86_46_118,ref_towards_dense
sub_01,1,dense_left,img/object-9_120-levels_1D/object9F0Level37F1Level40.png,img/object-9_120-levels_1D/object9F0Level29F1Level40.png,img/object-9_120-levels_1D/object9F0Level109F1Level40.png,0,0,839.7999999523163,q,practice,18,46665,1,True,q,38,30,110,8,-72,-80,8,72,80,38_30_110,30,110,8,-72,-80,8,72,80,38_30_110,8_-72_-80,8_72_80,2,2,2,64,query_middle,concave,30.0,ref_lowdim,0,0.0,1,ref_lowdim,ref_left,1.0,dense_region,110_38_118,ref_towards_dense
sub_01,1,dense_left,img/object-9_120-levels_1D/object9F0Level85F1Level40.png,img/object-9_120-levels_1D/object9F0Level117F1Level40.png,img/object-9_120-levels_1D/object9F0Level37F1Level40.png,0,0,1267.699999988079,q,practice,19,49172,1,True,q,86,118,38,-32,48,80,32,48,80,86_118_38,38,118,48,-32,-80,48,32,80,86_38_118,48_-32_-80,32_48_80,2,2,2,16,query_middle,convex,118.0,ref_highdim,1,1.0,2,ref_highdim,ref_left,1.0,sparse_region,62_30_110,ref_towards_sparse
sub_01,1,dense_left,img/object-9_120-levels_1D/object9F0Level77F1Level40.png,img/object-9_120-levels_1D/object9F0Level29F1Level40.png,img/object-9_120-levels_1D/object9F0Level117F1Level40.png,0,0,1765.6000000238419,p,practice,20,51679,1,True,p,78,30,118,48,-40,-88,48,40,88,78_30_118,30,118,48,-40,-88,48,40,88,78_30_118,48_-40_-88,40_48_88,2,2,2,8,query_middle,convex,118.0,ref_highdim,1,1.0,2,ref_highdim,ref_right,1.0,sparse_region,70_30_118,ref_towards_sparse
sub_01,1,dense_left,img/object-9_120-levels_1D/object9F0Level53F1Level40.png,img/object-9_120-levels_1D/object9F0Level29F1Level40.png,img/object-9_120-levels_1D/object9F0Level77F1Level40.png,0,0,1628.0,q,pre_exposure,1,3426,1,,,54,30,78,24,-24,-48,24,24,48,54_30_78,30,78,24,-24,-48,24,24,48,54_30_78,24_-24_-48,24_24_48,1,1,1,0,query_middle,concave,30.0,ref_lowdim,0,0.0,1,nan,nan,,dense_region,94_70_118,nan
sub_01,1,dense_left,img/object-9_120-levels_1D/object9F0Level69F1Level40.png,img/object-9_120-levels_1D/object9F0Level61F1Level40.png,img/object-9_120-levels_1D/object9F0Level77F1Level40.png,0,0,1628.5,p,pre_exposure,2,5930,1,,,70,62,78,8,-8,-16,8,8,16,70_62_78,62,78,8,-8,-16,8,8,16,70_62_78,8_-8_-16,8_8_16,1,1,1,0,query_middle,across_convexity,78.0,ref_highdim,1,1.0,2,nan,nan,,across_density_regions,78_70_86,nan
sub_01,1,dense_left,img/object-9_120-levels_1D/object9F0Level37F1Level40.png,img/object-9_120-levels_1D/object9F0Level61F1Level40.png,img/object-9_120-levels_1D/object9F0Level29F1Level40.png,0,0,930.1999999880791,p,pre_exposure,3,8435,1,True,p,38,62,30,-24,8,32,24,8,32,38_62_30,30,62,8,-24,-32,8,24,32,38_30_62,8_-24_-32,8_24_32,1,1,1,16,query_middle,concave,30.0,ref_lowdim,0,0.0,1,ref_lowdim,ref_right,1.0,dense_region,110_86_118,ref_towards_dense
sub_01,1,dense_left,img/object-9_120-levels_1D/object9F0Level69F1Level40.png,img/object-9_120-levels_1D/object9F0Level77F1Level40.png,img/object-9_120-levels_1D/object9F0Level53F1Level40.png,0,0,1460.5,p,pre_exposure,4,10936,1,False,q,70,78,54,-8,16,24,8,16,24,70_78_54,54,78,16,-8,-24,16,8,24,70_54_78,16_-8_-24,8_16_24,1,1,1,8,query_middle,across_convexity,54.0,ref_lowdim,0,0.0,1,ref_highdim,ref_left,0.0,across_density_regions,78_70_94,ref_towards_sparse
sub_01,1,dense_left,img/object-9_120-levels_1D/object9F0Level101F1Level40.png,img/object-9_120-levels_1D/object9F0Level117F1Level40.png,img/object-9_120-levels_1D/object9F0Level93F1Level40.png,0,0,1426.5,q,pre_exposure,5,13438,1,False,p,102,118,94,-16,8,24,16,8,24,102_118_94,94,118,8,-16,-24,8,16,24,102_94_118,8_-16_-24,8_16_24,1,1,2,8,query_middle,convex,118.0,ref_highdim,1,1.0,2,ref_lowdim,ref_right,0.0,sparse_region,46_30_54,ref_towards_dense
sub_01,1,dense_left,img/object-9_120-levels_1D/object9F0Level109F1Level40.png,img/object-9_120-levels_1D/object9F0Level93F1Level40.png,img/object-9_120-levels_1D/object9F0Level117F1Level40.png,0,0,1109.9000000357628,p,pre_exposure,6,15942,1,True,p,110,94,118,16,-8,-24,16,8,24,110_94_118,94,118,16,-8,-24,16,8,24,110_94_118,16_-8_-24,8_16_24,1,2,3,8,query_middle,convex,118.0,ref_highdim,1,1.0,2,ref_highdim,ref_right,1.0,sparse_region,38_30_54,ref_towards_sparse
sub_01,1,dense_left,img/object-9_120-levels_1D/object9F0Level69F1Level40.png,img/object-9_120-levels_1D/object9F0Level93F1Level40.png,img/object-9_120-levels_1D/object9F0Level61F1Level40.png,0,0,1086.800000011921,p,pre_exposure,7,18451,1,True,p,70,94,62,-24,8,32,24,8,32,70_94_62,62,94,8,-24,-32,8,24,32,70_62_94,8_-24_-32,8_24_32,1,2,2,16,query_middle,across_convexity,62.0,ref_lowdim,0,0.0,1,ref_lowdim,ref_right,1.0,across_density_regions,78_54_86,ref_towards_dense
sub_01,1,dense_left,img/object-9_120-levels_1D/object9F0Level37F1Level40.png,img/object-9_120-levels_1D/object9F0Level29F1Level40.png,img/object-9_120-levels_1D/object9F0Level53F1Level40.png,0,0,1681.2000000476837,q,pre_exposure,8,20957,1,True,q,38,30,54,8,-16,-24,8,16,24,38_30_54,30,54,8,-16,-24,8,16,24,38_30_54,8_-16_-24,8_16_24,1,2,4,8,query_middle,concave,30.0,ref_lowdim,0,0.0,1,ref_lowdim,ref_left,1.0,dense_region,110_94_118,ref_towards_dense
sub_01,1,dense_left,img/object-9_120-levels_1D/object9F0Level45F1Level40.png,img/object-9_120-levels_1D/object9F0Level61F1Level40.png,img/object-9_120-levels_1D/object9F0Level29F1Level40.png,0,0,1416.4000000357628,p,pre_exposure,9,23464,1,,,46,62,30,-16,16,32,16,16,32,46_62_30,30,62,16,-16,-32,16,16,32,46_30_62,16_-16_-32,16_16_32,1,1,1,0,query_middle,concave,30.0,ref_lowdim,0,0.0,1,nan,nan,,dense_region,102_86_118,nan
sub_01,1,dense_left,img/object-9_120-levels_1D/object9F0Level69F1Level40.png,img/object-9_120-levels_1D/object9F0Level77F1Level40.png,img/object-9_120-levels_1D/object9F0Level45F1Level40.png,0,0,1037.300000011921,q,pre_exposure,10,25968,1,True,q,70,78,46,-8,24,32,8,24,32,70_78_46,46,78,24,-8,-32,24,8,32,70_46_78,24_-8_-32,8_24_32,1,1,3,16,query_middle,across_convexity,78.0,ref_highdim,1,1.0,2,ref_highdim,ref_left,1.0,across_density_regions,78_70_102,ref_towards_sparse
sub_01,1,dense_left,img/object-9_120-levels_1D/object9F0Level53F1Level40.png,img/object-9_120-levels_1D/object9F0Level29F1Level40.png,img/object-9_120-levels_1D/object9F0Level69F1Level40.png,0,0,1487.5,p,pre_exposure,11,28470,1,True,p,54,30,70,24,-16,-40,24,16,40,54_30_70,30,70,24,-16,-40,24,16,40,54_30_70,24_-16_-40,16_24_40,1,1,1,8,query_middle,concave,70.0,ref_highdim,1,1.0,2,ref_highdim,ref_right,1.0,dense_region,94_78_118,ref_towards_sparse
sub_01,1,dense_left,img/object-9_120-levels_1D/object9F0Level69F1Level40.png,img/object-9_120-levels_1D/object9F0Level85F1Level40.png,img/object-9_120-levels_1D/object9F0Level45F1Level40.png,0,0,1431.2000000476837,q,pre_exposure,12,30973,1,True,q,70,86,46,-16,24,40,16,24,40,70_86_46,46,86,24,-16,-40,24,16,40,70_46_86,24_-16_-40,16_24_40,1,2,2,8,query_middle,across_convexity,86.0,ref_highdim,1,1.0,2,ref_highdim,ref_left,1.0,across_density_regions,78_62_102,ref_towards_sparse
sub_01,1,dense_left,img/object-9_120-levels_1D/object9F0Level45F1Level40.png,img/object-9_120-levels_1D/object9F0Level69F1Level40.png,img/object-9_120-levels_1D/object9F0Level29F1Level40.png,0,0,1046.5,p,pre_exposure,13,33480,1,True,p,46,70,30,-24,16,40,24,16,40,46_70_30,30,70,16,-24,-40,16,24,40,46_30_70,16_-24_-40,16_24_40,1,1,3,8,query_middle,concave,30.0,ref_lowdim,0,0.0,1,ref_lowdim,ref_right,1.0,dense_region,102_78_118,ref_towards_dense
sub_01,1,dense_left,img/object-9_120-levels_1D/object9F0Level69F1Level40.png,img/object-9_120-levels_1D/object9F0Level93F1Level40.png,img/object-9_120-levels_1D/object9F0Level45F1Level40.png,0,0,1321.300000011921,p,pre_exposure,14,35986,1,,,70,94,46,-24,24,48,24,24,48,70_94_46,46,94,24,-24,-48,24,24,48,70_46_94,24_-24_-48,24_24_48,1,2,2,0,query_middle,across_convexity,46.0,ref_lowdim,0,0.0,1,nan,nan,,across_density_regions,78_54_102,nan
sub_01,1,dense_left,img/object-9_120-levels_1D/object9F0Level93F1Level40.png,img/object-9_120-levels_1D/object9F0Level85F1Level40.png,img/object-9_120-levels_1D/object9F0Level117F1Level40.png,0,0,1661.8999999761581,q,pre_exposure,15,38492,1,True,q,94,86,118,8,-24,-32,8,24,32,94_86_118,86,118,8,-24,-32,8,24,32,94_86_118,8_-24_-32,8_24_32,1,3,4,16,query_middle,convex,86.0,ref_lowdim,0,0.0,1,ref_lowdim,ref_left,1.0,sparse_region,54_30_62,ref_towards_dense
sub_01,1,dense_left,img/object-9_120-levels_1D/object9F0Level69F1Level40.png,img/object-9_120-levels_1D/object9F0Level61F1Level40.png,img/object-9_120-levels_1D/object9F0Level85F1Level40.png,0,0,1188.1000000238419,p,pre_exposure,16,40999,1,False,q,70,62,86,8,-16,-24,8,16,24,70_62_86,62,86,8,-16,-24,8,16,24,70_62_86,8_-16_-24,8_16_24,1,3,5,8,query_middle,across_convexity,86.0,ref_highdim,1,1.0,2,ref_lowdim,ref_left,0.0,across_density_regions,78_62_86,ref_towards_dense
sub_01,1,dense_left,img/object-9_120-levels_1D/object9F0Level109F1Level40.png,img/object-9_120-levels_1D/object9F0Level85F1Level40.png,img/object-9_120-levels_1D/object9F0Level117F1Level40.png,0,0,937.1999999880791,p,pre_exposure,17,43506,1,True,p,110,86,118,24,-8,-32,24,8,32,110_86_118,86,118,24,-8,-32,24,8,32,110_86_118,24_-8_-32,8_24_32,1,2,5,16,query_middle,convex,118.0,ref_highdim,1,1.0,2,ref_highdim,ref_right,1.0,sparse_region,38_30_62,ref_towards_sparse
sub_01,1,dense_left,img/object-9_120-levels_1D/object9F0Level69F1Level40.png,img/object-9_120-levels_1D/object9F0Level85F1Level40.png,img/object-9_120-levels_1D/object9F0Level53F1Level40.png,0,0,1626.0999999642372,q,pre_exposure,18,46013,1,,,70,86,54,-16,16,32,16,16,32,70_86_54,54,86,16,-16,-32,16,16,32,70_54_86,16_-16_-32,16_16_32,1,2,2,0,query_middle,across_convexity,86.0,ref_highdim,1,1.0,2,nan,nan,,across_density_regions,78_62_94,nan
sub_01,1,dense_left,img/object-9_120-levels_1D/object9F0Level53F1Level40.png,img/object-9_120-levels_1D/object9F0Level69F1Level40.png,img/object-9_120-levels_1D/object9F0Level29F1Level40.png,0,0,948.1999999880791,q,pre_exposure,19,48519,1,True,q,54,70,30,-16,24,40,16,24,40,54_70_30,30,70,24,-16,-40,24,16,40,54_30_70,24_-16_-40,16_24_40,2,3,4,8,query_middle,concave,70.0,ref_highdim,1,1.0,2,ref_highdim,ref_left,1.0,dense_region,94_78_118,ref_towards_sparse
sub_01,1,dense_left,img/object-9_120-levels_1D/object9F0Level69F1Level40.png,img/object-9_120-levels_1D/object9F0Level93F1Level40.png,img/object-9_120-levels_1D/object9F0Level53F1Level40.png,0,0,1258.6000000238419,p,pre_exposure,20,51026,1,True,p,70,94,54,-24,16,40,24,16,40,70_94_54,54,94,16,-24,-40,16,24,40,70_54_94,16_-24_-40,16_24_40,1,2,5,8,query_middle,across_convexity,54.0,ref_lowdim,0,0.0,1,ref_lowdim,ref_right,1.0,across_density_regions,78_54_94,ref_towards_dense
sub_01,1,dense_left,img/object-9_120-levels_1D/object9F0Level93F1Level40.png,img/object-9_120-levels_1D/object9F0Level117F1Level40.png,img/object-9_120-levels_1D/object9F0Level85F1Level40.png,0,0,1145.800000011921,p,pre_exposure,21,53533,1,True,p,94,118,86,-24,8,32,24,8,32,94_118_86,86,118,8,-24,-32,8,24,32,94_86_118,8_-24_-32,8_24_32,2,4,6,16,query_middle,convex,86.0,ref_lowdim,0,0.0,1,ref_lowdim,ref_right,1.0,sparse_region,54_30_62,ref_towards_dense
sub_01,1,dense_left,img/object-9_120-levels_1D/object9F0Level37F1Level40.png,img/object-9_120-levels_1D/object9F0Level45F1Level40.png,img/object-9_120-levels_1D/object9F0Level29F1Level40.png,0,0,1055.800000011921,p,pre_exposure,22,56039,1,,,38,46,30,-8,8,16,8,8,16,38_46_30,30,46,8,-8,-16,8,8,16,38_30_46,8_-8_-16,8_8_16,1,2,2,0,query_middle,concave,30.0,ref_lowdim,0,0.0,1,nan,nan,,dense_region,110_102_118,nan
sub_01,1,dense_left,img/object-9_120-levels_1D/object9F0Level93F1Level40.png,img/object-9_120-levels_1D/object9F0Level117F1Level40.png,img/object-9_120-levels_1D/object9F0Level69F1Level40.png,0,0,1324.699999988079,q,pre_exposure,23,58550,1,,,94,118,70,-24,24,48,24,24,48,94_118_70,70,118,24,-24,-48,24,24,48,94_70_118,24_-24_-48,24_24_48,1,3,3,0,query_middle,convex,118.0,ref_highdim,1,1.0,2,nan,nan,,sparse_region,54_30_78,nan
sub_01,1,dense_left,img/object-9_120-levels_1D/object9F0Level53F1Level40.png,img/object-9_120-levels_1D/object9F0Level61F1Level40.png,img/object-9_120-levels_1D/object9F0Level29F1Level40.png,0,0,1131.2999999523163,q,pre_exposure,24,61052,1,True,q,54,62,30,-8,24,32,8,24,32,54_62_30,30,62,24,-8,-32,24,8,32,54_30_62,24_-8_-32,8_24_32,1,3,7,16,query_middle,concave,62.0,ref_highdim,1,1.0,2,ref_highdim,ref_left,1.0,dense_region,94_86_118,ref_towards_sparse
sub_01,1,dense_left,img/object-9_120-levels_1D/object9F0Level69F1Level40.png,img/object-9_120-levels_1D/object9F0Level53F1Level40.png,img/object-9_120-levels_1D/object9F0Level93F1Level40.png,0,0,1590.4000000357628,p,pre_exposure,25,63554,1,False,q,70,54,94,16,-24,-40,16,24,40,70_54_94,54,94,16,-24,-40,16,24,40,70_54_94,16_-24_-40,16_24_40,2,3,6,8,query_middle,across_convexity,94.0,ref_highdim,1,1.0,2,ref_lowdim,ref_left,0.0,across_density_regions,78_54_94,ref_towards_dense
sub_01,1,dense_left,img/object-9_120-levels_1D/object9F0Level53F1Level40.png,img/object-9_120-levels_1D/object9F0Level77F1Level40.png,img/object-9_120-levels_1D/object9F0Level29F1Level40.png,0,0,1081.300000011921,p,pre_exposure,26,66061,1,,,54,78,30,-24,24,48,24,24,48,54_78_30,30,78,24,-24,-48,24,24,48,54_30_78,24_-24_-48,24_24_48,2,4,4,0,query_middle,concave,30.0,ref_lowdim,0,0.0,1,nan,nan,,dense_region,94_70_118,nan
sub_01,1,dense_left,img/object-9_120-levels_1D/object9F0Level69F1Level40.png,img/object-9_120-levels_1D/object9F0Level45F1Level40.png,img/object-9_120-levels_1D/object9F0Level77F1Level40.png,0,0,830.0,p,pre_exposure,27,68567,1,True,p,70,46,78,24,-8,-32,24,8,32,70_46_78,46,78,24,-8,-32,24,8,32,70_46_78,24_-8_-32,8_24_32,2,4,8,16,query_middle,across_convexity,78.0,ref_highdim,1,1.0,2,ref_highdim,ref_right,1.0,across_density_regions,78_70_102,ref_towards_sparse
sub_01,1,dense_left,img/object-9_120-levels_1D/object9F0Level109F1Level40.png,img/object-9_120-levels_1D/object9F0Level117F1Level40.png,img/object-9_120-levels_1D/object9F0Level93F1Level40.png,0,0,1100.7000000476837,p,pre_exposure,1,3055,2,False,q,110,118,94,-8,16,24,8,16,24,110_118_94,94,118,16,-8,-24,16,8,24,110_94_118,16_-8_-24,8_16_24,2,3,6,8,query_middle,convex,94.0,ref_lowdim,0,0.0,1,ref_highdim,ref_left,0.0,sparse_region,38_30_54,ref_towards_sparse
sub_01,1,dense_left,img/object-9_120-levels_1D/object9F0Level69F1Level40.png,img/object-9_120-levels_1D/object9F0Level45F1Level40.png,img/object-9_120-levels_1D/object9F0Level85F1Level40.png,0,0,1679.699999988079,p,pre_exposure,2,5562,2,True,p,70,46,86,24,-16,-40,24,16,40,70_46_86,46,86,24,-16,-40,24,16,40,70_46_86,24_-16_-40,16_24_40,2,4,7,8,query_middle,across_convexity,86.0,ref_highdim,1,1.0,2,ref_highdim,ref_right,1.0,across_density_regions,78_62_102,ref_towards_sparse
sub_01,1,dense_left,img/object-9_120-levels_1D/object9F0Level101F1Level40.png,img/object-9_120-levels_1D/object9F0Level77F1Level40.png,img/object-9_120-levels_1D/object9F0Level117F1Level40.png,0,0,1228.0,q,pre_exposure,3,8066,2,False,p,102,78,118,24,-16,-40,24,16,40,102_78_118,78,118,24,-16,-40,24,16,40,102_78_118,24_-16_-40,16_24_40,1,5,8,8,query_middle,convex,78.0,ref_lowdim,0,0.0,1,ref_highdim,ref_right,0.0,sparse_region,46_30_70,ref_towards_sparse
sub_01,1,dense_left,img/object-9_120-levels_1D/object9F0Level45F1Level40.png,img/object-9_120-levels_1D/object9F0Level29F1Level40.png,img/object-9_120-levels_1D/object9F0Level61F1Level40.png,0,0,1272.5,q,pre_exposure,4,10572,2,,,46,30,62,16,-16,-32,16,16,32,46_30_62,30,62,16,-16,-32,16,16,32,46_30_62,16_-16_-32,16_16_32,2,3,3,0,query_middle,concave,30.0,ref_lowdim,0,0.0,1,nan,nan,,dense_region,102_86_118,nan
sub_01,1,dense_left,img/object-9_120-levels_1D/object9F0Level69F1Level40.png,img/object-9_120-levels_1D/object9F0Level53F1Level40.png,img/object-9_120-levels_1D/object9F0Level85F1Level40.png,0,0,960.0,p,pre_exposure,5,13076,2,,,70,54,86,16,-16,-32,16,16,32,70_54_86,54,86,16,-16,-32,16,16,32,70_54_86,16_-16_-32,16_16_32,2,4,4,0,query_middle,across_convexity,86.0,ref_highdim,1,1.0,2,nan,nan,,across_density_regions,78_62_94,nan
sub_01,1,dense_left,img/object-9_120-levels_1D/object9F0Level45F1Level40.png,img/object-9_120-levels_1D/object9F0Level29F1Level40.png,img/object-9_120-levels_1D/object9F0Level69F1Level40.png,0,0,1274.0,q,pre_exposure,6,15585,2,True,q,46,30,70,16,-24,-40,16,24,40,46_30_70,30,70,16,-24,-40,16,24,40,46_30_70,16_-24_-40,16_24_40,2,4,9,8,query_middle,concave,30.0,ref_lowdim,0,0.0,1,ref_lowdim,ref_left,1.0,dense_region,102_78_118,ref_towards_dense
sub_01,1,dense_left,img/object-9_120-levels_1D/object9F0Level93F1Level40.png,img/object-9_120-levels_1D/object9F0Level77F1Level40.png,img/object-9_120-levels_1D/object9F0Level117F1Level40.png,0,0,1125.6000000238419,q,pre_exposure,7,18092,2,True,q,94,78,118,16,-24,-40,16,24,40,94_78_118,78,118,16,-24,-40,16,24,40,94_78_118,16_-24_-40,16_24_40,1,5,10,8,query_middle,convex,78.0,ref_lowdim,0,0.0,1,ref_lowdim,ref_left,1.0,sparse_region,54_30_70,ref_towards_dense
sub_01,1,dense_left,img/object-9_120-levels_1D/object9F0Level53F1Level40.png,img/object-9_120-levels_1D/object9F0Level29F1Level40.png,img/object-9_120-levels_1D/object9F0Level61F1Level40.png,0,0,996.7999999523163,p,pre_exposure,8,20598,2,True,p,54,30,62,24,-8,-32,24,8,32,54_30_62,30,62,24,-8,-32,24,8,32,54_30_62,24_-8_-32,8_24_32,2,5,9,16,query_middle,concave,62.0,ref_highdim,1,1.0,2,ref_highdim,ref_right,1.0,dense_region,94_86_118,ref_towards_sparse
sub_01,1,dense_left,img/object-9_120-levels_1D/object9F0Level109F1Level40.png,img/object-9_120-levels_1D/object9F0Level117F1Level40.png,img/object-9_120-levels_1D/object9F0Level101F1Level40.png,0,0,1298.2999999523163,p,pre_exposure,9,23108,2,,,110,118,102,-8,8,16,8,8,16,110_118_102,102,118,8,-8,-16,8,8,16,110_102_118,8_-8_-16,8_8_16,1,3,3,0,query_middle,convex,102.0,ref_lowdim,0,0.0,1,nan,nan,,sparse_region,38_30_46,nan
sub_01,1,dense_left,img/object-9_120-levels_1D/object9F0Level69F1Level40.png,img/object-9_120-levels_1D/object9F0Level53F1Level40.png,img/object-9_120-levels_1D/object9F0Level77F1Level40.png,0,0,897.6999999880791,p,pre_exposure,10,25615,2,True,p,70,54,78,16,-8,-24,16,8,24,70_54_78,54,78,16,-8,-24,16,8,24,70_54_78,16_-8_-24,8_16_24,2,4,7,8,query_middle,across_convexity,78.0,ref_highdim,1,1.0,2,ref_highdim,ref_right,1.0,across_density_regions,78_70_94,ref_towards_sparse
sub_01,1,dense_left,img/object-9_120-levels_1D/object9F0Level101F1Level40.png,img/object-9_120-levels_1D/object9F0Level117F1Level40.png,img/object-9_120-levels_1D/object9F0Level85F1Level40.png,0,0,1767.5999999642372,q,pre_exposure,11,28125,2,,,102,118,86,-16,16,32,16,16,32,102_118_86,86,118,16,-16,-32,16,16,32,102_86_118,16_-16_-32,16_16_32,1,5,5,0,query_middle,convex,118.0,ref_highdim,1,1.0,2,nan,nan,,sparse_region,46_30_62,nan
sub_01,1,dense_left,img/object-9_120-levels_1D/object9F0Level109F1Level40.png,img/object-9_120-levels_1D/object9F0Level101F1Level40.png,img/object-9_120-levels_1D/object9F0Level117F1Level40.png,0,0,2441.0,q,pre_exposure,12,31072,2,,,110,102,118,8,-8,-16,8,8,16,110_102_118,102,118,8,-8,-16,8,8,16,110_102_118,8_-8_-16,8_8_16,2,4,4,0,query_middle,convex,102.0,ref_lowdim,0,0.0,1,nan,nan,,sparse_region,38_30_46,nan
sub_01,1,dense_left,img/object-9_120-levels_1D/object9F0Level93F1Level40.png,img/object-9_120-levels_1D/object9F0Level69F1Level40.png,img/object-9_120-levels_1D/object9F0Level117F1Level40.png,0,0,1417.0,p,pre_exposure,13,33584,2,,,94,70,118,24,-24,-48,24,24,48,94_70_118,70,118,24,-24,-48,24,24,48,94_70_118,24_-24_-48,24_24_48,2,5,5,0,query_middle,convex,118.0,ref_highdim,1,1.0,2,nan,nan,,sparse_region,54_30_78,nan
sub_01,1,dense_left,img/object-9_120-levels_1D/object9F0Level69F1Level40.png,img/object-9_120-levels_1D/object9F0Level85F1Level40.png,img/object-9_120-levels_1D/object9F0Level61F1Level40.png,0,0,1150.8999999761581,p,pre_exposure,14,36090,2,True,p,70,86,62,-16,8,24,16,8,24,70_86_62,62,86,8,-16,-24,8,16,24,70_62_86,8_-16_-24,8_16_24,2,4,8,8,query_middle,across_convexity,62.0,ref_lowdim,0,0.0,1,ref_lowdim,ref_right,1.0,across_density_regions,78_62_86,ref_towards_dense
sub_01,1,dense_left,img/object-9_120-levels_1D/object9F0Level109F1Level40.png,img/object-9_120-levels_1D/object9F0Level117F1Level40.png,img/object-9_120-levels_1D/object9F0Level85F1Level40.png,0,0,1285.7000000476837,q,pre_exposure,15,38597,2,True,q,110,118,86,-8,24,32,8,24,32,110_118_86,86,118,24,-8,-32,24,8,32,110_86_118,24_-8_-32,8_24_32,2,6,10,16,query_middle,convex,118.0,ref_highdim,1,1.0,2,ref_highdim,ref_left,1.0,sparse_region,38_30_62,ref_towards_sparse
sub_01,1,dense_left,img/object-9_120-levels_1D/object9F0Level37F1Level40.png,img/object-9_120-levels_1D/object9F0Level29F1Level40.png,img/object-9_120-levels_1D/object9F0Level61F1Level40.png,0,0,890.2000000476837,q,pre_exposure,16,41104,2,True,q,38,30,62,8,-24,-32,8,24,32,38_30_62,30,62,8,-24,-32,8,24,32,38_30_62,8_-24_-32,8_24_32,2,5,11,16,query_middle,concave,30.0,ref_lowdim,0,0.0,1,ref_lowdim,ref_left,1.0,dense_region,110_86_118,ref_towards_dense
sub_01,1,dense_left,img/object-9_120-levels_1D/object9F0Level101F1Level40.png,img/object-9_120-levels_1D/object9F0Level85F1Level40.png,img/object-9_120-levels_1D/object9F0Level117F1Level40.png,0,0,1142.0,p,pre_exposure,17,43610,2,,,102,86,118,16,-16,-32,16,16,32,102_86_118,86,118,16,-16,-32,16,16,32,102_86_118,16_-16_-32,16_16_32,2,6,6,0,query_middle,convex,118.0,ref_highdim,1,1.0,2,nan,nan,,sparse_region,46_30_62,nan
sub_01,1,dense_left,img/object-9_120-levels_1D/object9F0Level69F1Level40.png,img/object-9_120-levels_1D/object9F0Level61F1Level40.png,img/object-9_120-levels_1D/object9F0Level93F1Level40.png,0,0,1046.5,q,pre_exposure,18,46117,2,True,q,70,62,94,8,-24,-32,8,24,32,70_62_94,62,94,8,-24,-32,8,24,32,70_62_94,8_-24_-32,8_24_32,2,6,12,16,query_middle,across_convexity,62.0,ref_lowdim,0,0.0,1,ref_lowdim,ref_left,1.0,across_density_regions,78_54_86,ref_towards_dense
sub_01,1,dense_left,img/object-9_120-levels_1D/object9F0Level101F1Level40.png,img/object-9_120-levels_1D/object9F0Level117F1Level40.png,img/object-9_120-levels_1D/object9F0Level77F1Level40.png,0,0,1393.2000000476837,q,pre_exposure,19,48624,2,True,q,102,118,78,-16,24,40,16,24,40,102_118_78,78,118,24,-16,-40,24,16,40,102_78_118,24_-16_-40,16_24_40,2,6,11,8,query_middle,convex,118.0,ref_highdim,1,1.0,2,ref_highdim,ref_left,1.0,sparse_region,46_30_70,ref_towards_sparse
sub_01,1,dense_left,img/object-9_120-levels_1D/object9F0Level69F1Level40.png,img/object-9_120-levels_1D/object9F0Level77F1Level40.png,img/object-9_120-levels_1D/object9F0Level61F1Level40.png,0,0,1482.699999988079,p,pre_exposure,20,51130,2,,,70,78,62,-8,8,16,8,8,16,70_78_62,62,78,8,-8,-16,8,8,16,70_62_78,8_-8_-16,8_8_16,2,5,5,0,query_middle,across_convexity,62.0,ref_lowdim,0,0.0,1,nan,nan,,across_density_regions,78_70_86,nan
sub_01,1,dense_left,img/object-9_120-levels_1D/object9F0Level37F1Level40.png,img/object-9_120-levels_1D/object9F0Level53F1Level40.png,img/object-9_120-levels_1D/object9F0Level29F1Level40.png,0,0,1237.0999999642372,p,pre_exposure,21,53637,2,True,p,38,54,30,-16,8,24,16,8,24,38_54_30,30,54,8,-16,-24,8,16,24,38_30_54,8_-16_-24,8_16_24,2,5,9,8,query_middle,concave,30.0,ref_lowdim,0,0.0,1,ref_lowdim,ref_right,1.0,dense_region,110_94_118,ref_towards_dense
sub_01,1,dense_left,img/object-9_120-levels_1D/object9F0Level101F1Level40.png,img/object-9_120-levels_1D/object9F0Level93F1Level40.png,img/object-9_120-levels_1D/object9F0Level117F1Level40.png,0,0,1165.699999988079,p,pre_exposure,22,56144,2,False,q,102,94,118,8,-16,-24,8,16,24,102_94_118,94,118,8,-16,-24,8,16,24,102_94_118,8_-16_-24,8_16_24,2,6,10,8,query_middle,convex,118.0,ref_highdim,1,1.0,2,ref_lowdim,ref_left,0.0,sparse_region,46_30_54,ref_towards_dense
sub_01,1,dense_left,img/object-9_120-levels_1D/object9F0Level45F1Level40.png,img/object-9_120-levels_1D/object9F0Level53F1Level40.png,img/object-9_120-levels_1D/object9F0Level29F1Level40.png,0,0,1394.199999988079,q,pre_exposure,23,58650,2,True,q,46,54,30,-8,16,24,8,16,24,46_54_30,30,54,16,-8,-24,16,8,24,46_30_54,16_-8_-24,8_16_24,1,5,11,8,query_middle,concave,54.0,ref_highdim,1,1.0,2,ref_highdim,ref_left,1.0,dense_region,102_94_118,ref_towards_sparse
sub_01,1,dense_left,img/object-9_120-levels_1D/object9F0Level93F1Level40.png,img/object-9_120-levels_1D/object9F0Level117F1Level40.png,img/object-9_120-levels_1D/object9F0Level77F1Level40.png,0,0,1175.800000011921,q,pre_exposure,24,61162,2,False,p,94,118,78,-24,16,40,24,16,40,94_118_78,78,118,16,-24,-40,16,24,40,94_78_118,16_-24_-40,16_24_40,2,6,12,8,query_middle,convex,118.0,ref_highdim,1,1.0,2,ref_lowdim,ref_right,0.0,sparse_region,54_30_70,ref_towards_dense
sub_01,1,dense_left,img/object-9_120-levels_1D/object9F0Level69F1Level40.png,img/object-9_120-levels_1D/object9F0Level45F1Level40.png,img/object-9_120-levels_1D/object9F0Level93F1Level40.png,0,0,1674.300000011921,p,pre_exposure,25,63670,2,,,70,46,94,24,-24,-48,24,24,48,70_46_94,46,94,24,-24,-48,24,24,48,70_46_94,24_-24_-48,24_24_48,2,6,6,0,query_middle,across_convexity,94.0,ref_highdim,1,1.0,2,nan,nan,,across_density_regions,78_54_102,nan
sub_01,1,dense_left,img/object-9_120-levels_1D/object9F0Level45F1Level40.png,img/object-9_120-levels_1D/object9F0Level29F1Level40.png,img/object-9_120-levels_1D/object9F0Level53F1Level40.png,0,0,1422.6000000238419,q,pre_exposure,26,66177,2,False,p,46,30,54,16,-8,-24,16,8,24,46_30_54,30,54,16,-8,-24,16,8,24,46_30_54,16_-8_-24,8_16_24,2,6,12,8,query_middle,concave,30.0,ref_lowdim,0,0.0,1,ref_highdim,ref_right,0.0,dense_region,102_94_118,ref_towards_sparse
sub_01,1,dense_left,img/object-9_120-levels_1D/object9F0Level37F1Level40.png,img/object-9_120-levels_1D/object9F0Level29F1Level40.png,img/object-9_120-levels_1D/object9F0Level45F1Level40.png,0,0,1368.0999999642372,q,pre_exposure,27,68685,2,,,38,30,46,8,-8,-16,8,8,16,38_30_46,30,46,8,-8,-16,8,8,16,38_30_46,8_-8_-16,8_8_16,2,6,6,0,query_middle,concave,30.0,ref_lowdim,0,0.0,1,nan,nan,,dense_region,110_102_118,nan
sub_01,1,dense_left,img/object-9_120-levels_1D/object9F0Level69F1Level40.png,img/object-9_120-levels_1D/object9F0Level93F1Level40.png,img/object-9_120-levels_1D/object9F0Level45F1Level40.png,0,0,2162.699999988079,p,post_exposure,1,3112,1,,,70,94,46,-24,24,48,24,24,48,70_94_46,46,94,24,-24,-48,24,24,48,70_46_94,24_-24_-48,24_24_48,1,1,1,0,query_middle,across_convexity,46.0,ref_lowdim,0,0.0,1,nan,nan,,across_density_regions,78_54_102,nan
sub_01,1,dense_left,img/object-9_120-levels_1D/object9F0Level101F1Level40.png,img/object-9_120-levels_1D/object9F0Level117F1Level40.png,img/object-9_120-levels_1D/object9F0Level77F1Level40.png,0,0,1031.800000011921,q,post_exposure,2,5619,1,True,q,102,118,78,-16,24,40,16,24,40,102_118_78,78,118,24,-16,-40,24,16,40,102_78_118,24_-16_-40,16_24_40,1,1,1,8,query_middle,convex,118.0,ref_highdim,1,1.0,2,ref_highdim,ref_left,1.0,sparse_region,46_30_70,ref_towards_sparse
sub_01,1,dense_left,img/object-9_120-levels_1D/object9F0Level69F1Level40.png,img/object-9_120-levels_1D/object9F0Level85F1Level40.png,img/object-9_120-levels_1D/object9F0Level53F1Level40.png,0,0,1259.6000000238419,p,post_exposure,3,8125,1,,,70,86,54,-16,16,32,16,16,32,70_86_54,54,86,16,-16,-32,16,16,32,70_54_86,16_-16_-32,16_16_32,1,1,1,0,query_middle,across_convexity,54.0,ref_lowdim,0,0.0,1,nan,nan,,across_density_regions,78_62_94,nan
sub_01,1,dense_left,img/object-9_120-levels_1D/object9F0Level53F1Level40.png,img/object-9_120-levels_1D/object9F0Level77F1Level40.png,img/object-9_120-levels_1D/object9F0Level29F1Level40.png,0,0,1357.2000000476837,q,post_exposure,4,10633,1,,,54,78,30,-24,24,48,24,24,48,54_78_30,30,78,24,-24,-48,24,24,48,54_30_78,24_-24_-48,24_24_48,1,2,2,0,query_middle,concave,78.0,ref_highdim,1,1.0,2,nan,nan,,dense_region,94_70_118,nan
sub_01,1,dense_left,img/object-9_120-levels_1D/object9F0Level101F1Level40.png,img/object-9_120-levels_1D/object9F0Level93F1Level40.png,img/object-9_120-levels_1D/object9F0Level117F1Level40.png,0,0,1271.8999999761581,p,post_exposure,5,13141,1,False,q,102,94,118,8,-16,-24,8,16,24,102_94_118,94,118,8,-16,-24,8,16,24,102_94_118,8_-16_-24,8_16_24,1,1,1,8,query_middle,convex,118.0,ref_highdim,1,1.0,2,ref_lowdim,ref_left,0.0,sparse_region,46_30_54,ref_towards_dense
sub_01,1,dense_left,img/object-9_120-levels_1D/object9F0Level69F1Level40.png,img/object-9_120-levels_1D/object9F0Level61F1Level40.png,img/object-9_120-levels_1D/object9F0Level77F1Level40.png,0,0,885.5,p,post_exposure,6,15645,1,,,70,62,78,8,-8,-16,8,8,16,70_62_78,62,78,8,-8,-16,8,8,16,70_62_78,8_-8_-16,8_8_16,1,1,1,0,query_middle,across_convexity,78.0,ref_highdim,1,1.0,2,nan,nan,,across_density_regions,78_70_86,nan
sub_01,1,dense_left,img/object-9_120-levels_1D/object9F0Level93F1Level40.png,img/object-9_120-levels_1D/object9F0Level117F1Level40.png,img/object-9_120-levels_1D/object9F0Level69F1Level40.png,0,0,1471.300000011921,q,post_exposure,7,18152,1,,,94,118,70,-24,24,48,24,24,48,94_118_70,70,118,24,-24,-48,24,24,48,94_70_118,24_-24_-48,24_24_48,1,3,3,0,query_middle,convex,118.0,ref_highdim,1,1.0,2,nan,nan,,sparse_region,54_30_78,nan
sub_01,1,dense_left,img/object-9_120-levels_1D/object9F0Level69F1Level40.png,img/object-9_120-levels_1D/object9F0Level53F1Level40.png,img/object-9_120-levels_1D/object9F0Level77F1Level40.png,0,0,742.1999999880791,p,post_exposure,8,20659,1,True,p,70,54,78,16,-8,-24,16,8,24,70_54_78,54,78,16,-8,-24,16,8,24,70_54_78,16_-8_-24,8_16_24,1,1,2,8,query_middle,across_convexity,78.0,ref_highdim,1,1.0,2,ref_highdim,ref_right,1.0,across_density_regions,78_70_94,ref_towards_sparse
sub_01,1,dense_left,img/object-9_120-levels_1D/object9F0Level53F1Level40.png,img/object-9_120-levels_1D/object9F0Level29F1Level40.png,img/object-9_120-levels_1D/object9F0Level69F1Level40.png,0,0,911.1999999880791,p,post_exposure,9,23166,1,True,p,54,30,70,24,-16,-40,24,16,40,54_30_70,30,70,24,-16,-40,24,16,40,54_30_70,24_-16_-40,16_24_40,1,2,2,8,query_middle,concave,70.0,ref_highdim,1,1.0,2,ref_highdim,ref_right,1.0,dense_region,94_78_118,ref_towards_sparse
sub_01,1,dense_left,img/object-9_120-levels_1D/object9F0Level101F1Level40.png,img/object-9_120-levels_1D/object9F0Level117F1Level40.png,img/object-9_120-levels_1D/object9F0Level85F1Level40.png,0,0,1121.1000000238419,q,post_exposure,10,25676,1,,,102,118,86,-16,16,32,16,16,32,102_118_86,86,118,16,-16,-32,16,16,32,102_86_118,16_-16_-32,16_16_32,1,2,2,0,query_middle,convex,118.0,ref_highdim,1,1.0,2,nan,nan,,sparse_region,46_30_62,nan
sub_01,1,dense_left,img/object-9_120-levels_1D/object9F0Level109F1Level40.png,img/object-9_120-levels_1D/object9F0Level93F1Level40.png,img/object-9_120-levels_1D/object9F0Level117F1Level40.png,0,0,1170.1000000238419,p,post_exposure,11,28179,1,True,p,110,94,118,16,-8,-24,16,8,24,110_94_118,94,118,16,-8,-24,16,8,24,110_94_118,16_-8_-24,8_16_24,1,2,3,8,query_middle,convex,118.0,ref_highdim,1,1.0,2,ref_highdim,ref_right,1.0,sparse_region,38_30_54,ref_towards_sparse
sub_01,1,dense_left,img/object-9_120-levels_1D/object9F0Level69F1Level40.png,img/object-9_120-levels_1D/object9F0Level85F1Level40.png,img/object-9_120-levels_1D/object9F0Level61F1Level40.png,0,0,1503.699999988079,p,post_exposure,12,30686,1,True,p,70,86,62,-16,8,24,16,8,24,70_86_62,62,86,8,-16,-24,8,16,24,70_62_86,8_-16_-24,8_16_24,1,2,4,8,query_middle,across_convexity,62.0,ref_lowdim,0,0.0,1,ref_lowdim,ref_right,1.0,across_density_regions,78_62_86,ref_towards_dense
sub_01,1,dense_left,img/object-9_120-levels_1D/object9F0Level101F1Level40.png,img/object-9_120-levels_1D/object9F0Level85F1Level40.png,img/object-9_120-levels_1D/object9F0Level117F1Level40.png,0,0,1791.6000000238419,p,post_exposure,13,33193,1,,,102,86,118,16,-16,-32,16,16,32,102_86_118,86,118,16,-16,-32,16,16,32,102_86_118,16_-16_-32,16_16_32,2,3,3,0,query_middle,convex,118.0,ref_highdim,1,1.0,2,nan,nan,,sparse_region,46_30_62,nan
sub_01,1,dense_left,img/object-9_120-levels_1D/object9F0Level45F1Level40.png,img/object-9_120-levels_1D/object9F0Level29F1Level40.png,img/object-9_120-levels_1D/object9F0Level61F1Level40.png,0,0,1490.0,q,post_exposure,14,35694,1,,,46,30,62,16,-16,-32,16,16,32,46_30_62,30,62,16,-16,-32,16,16,32,46_30_62,16_-16_-32,16_16_32,1,4,4,0,query_middle,concave,30.0,ref_lowdim,0,0.0,1,nan,nan,,dense_region,102_86_118,nan
sub_01,1,dense_left,img/object-9_120-levels_1D/object9F0Level69F1Level40.png,img/object-9_120-levels_1D/object9F0Level45F1Level40.png,img/object-9_120-levels_1D/object9F0Level93F1Level40.png,0,0,1710.8999999761581,p,post_exposure,15,38201,1,,,70,46,94,24,-24,-48,24,24,48,70_46_94,46,94,24,-24,-48,24,24,48,70_46_94,24_-24_-48,24_24_48,2,4,4,0,query_middle,across_convexity,94.0,ref_highdim,1,1.0,2,nan,nan,,across_density_regions,78_54_102,nan
sub_01,1,dense_left,img/object-9_120-levels_1D/object9F0Level93F1Level40.png,img/object-9_120-levels_1D/object9F0Level69F1Level40.png,img/object-9_120-levels_1D/object9F0Level117F1Level40.png,0,0,1415.800000011921,p,post_exposure,16,40707,1,,,94,70,118,24,-24,-48,24,24,48,94_70_118,70,118,24,-24,-48,24,24,48,94_70_118,24_-24_-48,24_24_48,2,5,5,0,query_middle,convex,118.0,ref_highdim,1,1.0,2,nan,nan,,sparse_region,54_30_78,nan
sub_01,1,dense_left,img/object-9_120-levels_1D/object9F0Level69F1Level40.png,img/object-9_120-levels_1D/object9F0Level53F1Level40.png,img/object-9_120-levels_1D/object9F0Level93F1Level40.png,0,0,1110.2999999523163,p,post_exposure,17,43214,1,False,q,70,54,94,16,-24,-40,16,24,40,70_54_94,54,94,16,-24,-40,16,24,40,70_54_94,16_-24_-40,16_24_40,1,1,3,8,query_middle,across_convexity,94.0,ref_highdim,1,1.0,2,ref_lowdim,ref_left,0.0,across_density_regions,78_54_94,ref_towards_dense
sub_01,1,dense_left,img/object-9_120-levels_1D/object9F0Level45F1Level40.png,img/object-9_120-levels_1D/object9F0Level69F1Level40.png,img/object-9_120-levels_1D/object9F0Level29F1Level40.png,0,0,1203.6000000238419,p,post_exposure,18,45721,1,True,p,46,70,30,-24,16,40,24,16,40,46_70_30,30,70,16,-24,-40,16,24,40,46_30_70,16_-24_-40,16_24_40,1,2,4,8,query_middle,concave,30.0,ref_lowdim,0,0.0,1,ref_lowdim,ref_right,1.0,dense_region,102_78_118,ref_towards_dense
sub_01,1,dense_left,img/object-9_120-levels_1D/object9F0Level101F1Level40.png,img/object-9_120-levels_1D/object9F0Level77F1Level40.png,img/object-9_120-levels_1D/object9F0Level117F1Level40.png,0,0,872.1000000238419,p,post_exposure,19,48228,1,True,p,102,78,118,24,-16,-40,24,16,40,102_78_118,78,118,24,-16,-40,24,16,40,102_78_118,24_-16_-40,16_24_40,2,3,5,8,query_middle,convex,118.0,ref_highdim,1,1.0,2,ref_highdim,ref_right,1.0,sparse_region,46_30_70,ref_towards_sparse
sub_01,1,dense_left,img/object-9_120-levels_1D/object9F0Level109F1Level40.png,img/object-9_120-levels_1D/object9F0Level117F1Level40.png,img/object-9_120-levels_1D/object9F0Level85F1Level40.png,0,0,1011.6999999880791,q,post_exposure,20,50734,1,True,q,110,118,86,-8,24,32,8,24,32,110_118_86,86,118,24,-8,-32,24,8,32,110_86_118,24_-8_-32,8_24_32,1,1,1,16,query_middle,convex,118.0,ref_highdim,1,1.0,2,ref_highdim,ref_left,1.0,sparse_region,38_30_62,ref_towards_sparse
sub_01,1,dense_left,img/object-9_120-levels_1D/object9F0Level69F1Level40.png,img/object-9_120-levels_1D/object9F0Level45F1Level40.png,img/object-9_120-levels_1D/object9F0Level77F1Level40.png,0,0,1079.199999988079,p,post_exposure,21,53241,1,True,p,70,46,78,24,-8,-32,24,8,32,70_46_78,46,78,24,-8,-32,24,8,32,70_46_78,24_-8_-32,8_24_32,1,2,2,16,query_middle,across_convexity,78.0,ref_highdim,1,1.0,2,ref_highdim,ref_right,1.0,across_density_regions,78_70_102,ref_towards_sparse
sub_01,1,dense_left,img/object-9_120-levels_1D/object9F0Level45F1Level40.png,img/object-9_120-levels_1D/object9F0Level29F1Level40.png,img/object-9_120-levels_1D/object9F0Level69F1Level40.png,0,0,935.0999999642372,q,post_exposure,22,55748,1,True,q,46,30,70,16,-24,-40,16,24,40,46_30_70,30,70,16,-24,-40,16,24,40,46_30_70,16_-24_-40,16_24_40,2,3,6,8,query_middle,concave,30.0,ref_lowdim,0,0.0,1,ref_lowdim,ref_left,1.0,dense_region,102_78_118,ref_towards_dense
sub_01,1,dense_left,img/object-9_120-levels_1D/object9F0Level69F1Level40.png,img/object-9_120-levels_1D/object9F0Level93F1Level40.png,img/object-9_120-levels_1D/object9F0Level61F1Level40.png,0,0,1425.199999988079,p,post_exposure,23,58254,1,True,p,70,94,62,-24,8,32,24,8,32,70_94_62,62,94,8,-24,-32,8,24,32,70_62_94,8_-24_-32,8_24_32,1,1,3,16,query_middle,across_convexity,62.0,ref_lowdim,0,0.0,1,ref_lowdim,ref_right,1.0,across_density_regions,78_54_86,ref_towards_dense
sub_01,1,dense_left,img/object-9_120-levels_1D/object9F0Level37F1Level40.png,img/object-9_120-levels_1D/object9F0Level29F1Level40.png,img/object-9_120-levels_1D/object9F0Level61F1Level40.png,0,0,977.9000000357628,q,post_exposure,24,60760,1,True,q,38,30,62,8,-24,-32,8,24,32,38_30_62,30,62,8,-24,-32,8,24,32,38_30_62,8_-24_-32,8_24_32,1,2,4,16,query_middle,concave,30.0,ref_lowdim,0,0.0,1,ref_lowdim,ref_left,1.0,dense_region,110_86_118,ref_towards_dense
sub_01,1,dense_left,img/object-9_120-levels_1D/object9F0Level93F1Level40.png,img/object-9_120-levels_1D/object9F0Level117F1Level40.png,img/object-9_120-levels_1D/object9F0Level77F1Level40.png,0,0,1336.300000011921,q,post_exposure,25,63267,1,False,p,94,118,78,-24,16,40,24,16,40,94_118_78,78,118,16,-24,-40,16,24,40,94_78_118,16_-24_-40,16_24_40,1,4,7,8,query_middle,convex,118.0,ref_highdim,1,1.0,2,ref_lowdim,ref_right,0.0,sparse_region,54_30_70,ref_towards_dense
sub_01,1,dense_left,img/object-9_120-levels_1D/object9F0Level53F1Level40.png,img/object-9_120-levels_1D/object9F0Level61F1Level40.png,img/object-9_120-levels_1D/object9F0Level29F1Level40.png,0,0,1049.199999988079,q,post_exposure,26,65774,1,True,q,54,62,30,-8,24,32,8,24,32,54_62_30,30,62,24,-8,-32,24,8,32,54_30_62,24_-8_-32,8_24_32,1,3,5,16,query_middle,concave,62.0,ref_highdim,1,1.0,2,ref_highdim,ref_left,1.0,dense_region,94_86_118,ref_towards_sparse
sub_01,1,dense_left,img/object-9_120-levels_1D/object9F0Level37F1Level40.png,img/object-9_120-levels_1D/object9F0Level29F1Level40.png,img/object-9_120-levels_1D/object9F0Level53F1Level40.png,0,0,1422.2999999523163,q,post_exposure,27,68281,1,True,q,38,30,54,8,-16,-24,8,16,24,38_30_54,30,54,8,-16,-24,8,16,24,38_30_54,8_-16_-24,8_16_24,1,3,5,8,query_middle,concave,30.0,ref_lowdim,0,0.0,1,ref_lowdim,ref_left,1.0,dense_region,110_94_118,ref_towards_dense
sub_01,1,dense_left,img/object-9_120-levels_1D/object9F0Level45F1Level40.png,img/object-9_120-levels_1D/object9F0Level61F1Level40.png,img/object-9_120-levels_1D/object9F0Level29F1Level40.png,0,0,1338.6000000238419,p,post_exposure,1,3106,2,,,46,62,30,-16,16,32,16,16,32,46_62_30,30,62,16,-16,-32,16,16,32,46_30_62,16_-16_-32,16_16_32,2,5,5,0,query_middle,concave,30.0,ref_lowdim,0,0.0,1,nan,nan,,dense_region,102_86_118,nan
sub_01,1,dense_left,img/object-9_120-levels_1D/object9F0Level53F1Level40.png,img/object-9_120-levels_1D/object9F0Level29F1Level40.png,img/object-9_120-levels_1D/object9F0Level61F1Level40.png,0,0,1530.800000011921,p,post_exposure,2,5611,2,True,p,54,30,62,24,-8,-32,24,8,32,54_30_62,30,62,24,-8,-32,24,8,32,54_30_62,24_-8_-32,8_24_32,2,4,6,16,query_middle,concave,62.0,ref_highdim,1,1.0,2,ref_highdim,ref_right,1.0,dense_region,94_86_118,ref_towards_sparse
sub_01,1,dense_left,img/object-9_120-levels_1D/object9F0Level45F1Level40.png,img/object-9_120-levels_1D/object9F0Level29F1Level40.png,img/object-9_120-levels_1D/object9F0Level53F1Level40.png,0,0,1934.5999999642372,p,post_exposure,3,8117,2,True,p,46,30,54,16,-8,-24,16,8,24,46_30_54,30,54,16,-8,-24,16,8,24,46_30_54,16_-8_-24,8_16_24,1,3,6,8,query_middle,concave,54.0,ref_highdim,1,1.0,2,ref_highdim,ref_right,1.0,dense_region,102_94_118,ref_towards_sparse
sub_01,1,dense_left,img/object-9_120-levels_1D/object9F0Level109F1Level40.png,img/object-9_120-levels_1D/object9F0Level101F1Level40.png,img/object-9_120-levels_1D/object9F0Level117F1Level40.png,0,0,1592.6000000238419,p,post_exposure,4,10625,2,,,110,102,118,8,-8,-16,8,8,16,110_102_118,102,118,8,-8,-16,8,8,16,110_102_118,8_-8_-16,8_8_16,1,2,2,0,query_middle,convex,118.0,ref_highdim,1,1.0,2,nan,nan,,sparse_region,38_30_46,nan
sub_01,1,dense_left,img/object-9_120-levels_1D/object9F0Level69F1Level40.png,img/object-9_120-levels_1D/object9F0Level77F1Level40.png,img/object-9_120-levels_1D/object9F0Level53F1Level40.png,0,0,1411.199999988079,q,post_exposure,5,13136,2,True,q,70,78,54,-8,16,24,8,16,24,70_78_54,54,78,16,-8,-24,16,8,24,70_54_78,16_-8_-24,8_16_24,2,4,7,8,query_middle,across_convexity,78.0,ref_highdim,1,1.0,2,ref_highdim,ref_left,1.0,across_density_regions,78_70_94,ref_towards_sparse
sub_01,1,dense_left,img/object-9_120-levels_1D/object9F0Level45F1Level40.png,img/object-9_120-levels_1D/object9F0Level53F1Level40.png,img/object-9_120-levels_1D/object9F0Level29F1Level40.png,0,0,1463.0,p,post_exposure,6,15644,2,False,q,46,54,30,-8,16,24,8,16,24,46_54_30,30,54,16,-8,-24,16,8,24,46_30_54,16_-8_-24,8_16_24,2,5,8,8,query_middle,concave,30.0,ref_lowdim,0,0.0,1,ref_highdim,ref_left,0.0,dense_region,102_94_118,ref_towards_sparse
sub_01,1,dense_left,img/object-9_120-levels_1D/object9F0Level69F1Level40.png,img/object-9_120-levels_1D/object9F0Level45F1Level40.png,img/object-9_120-levels_1D/object9F0Level85F1Level40.png,0,0,969.0,p,post_exposure,7,18151,2,True,p,70,46,86,24,-16,-40,24,16,40,70_46_86,46,86,24,-16,-40,24,16,40,70_46_86,24_-16_-40,16_24_40,1,4,8,8,query_middle,across_convexity,86.0,ref_highdim,1,1.0,2,ref_highdim,ref_right,1.0,across_density_regions,78_62_102,ref_towards_sparse
sub_01,1,dense_left,img/object-9_120-levels_1D/object9F0Level53F1Level40.png,img/object-9_120-levels_1D/object9F0Level69F1Level40.png,img/object-9_120-levels_1D/object9F0Level29F1Level40.png,0,0,1239.0999999642372,p,post_exposure,8,20658,2,False,q,54,70,30,-16,24,40,16,24,40,54_70_30,30,70,24,-16,-40,24,16,40,54_30_70,24_-16_-40,16_24_40,2,5,9,8,query_middle,concave,30.0,ref_lowdim,0,0.0,1,ref_highdim,ref_left,0.0,dense_region,94_78_118,ref_towards_sparse
sub_01,1,dense_left,img/object-9_120-levels_1D/object9F0Level109F1Level40.png,img/object-9_120-levels_1D/object9F0Level117F1Level40.png,img/object-9_120-levels_1D/object9F0Level93F1Level40.png,0,0,1181.5999999642372,q,post_exposure,9,23164,2,True,q,110,118,94,-8,16,24,8,16,24,110_118_94,94,118,16,-8,-24,16,8,24,110_94_118,16_-8_-24,8_16_24,2,6,9,8,query_middle,convex,118.0,ref_highdim,1,1.0,2,ref_highdim,ref_left,1.0,sparse_region,38_30_54,ref_towards_sparse
sub_01,1,dense_left,img/object-9_120-levels_1D/object9F0Level37F1Level40.png,img/object-9_120-levels_1D/object9F0Level29F1Level40.png,img/object-9_120-levels_1D/object9F0Level45F1Level40.png,0,0,1399.199999988079,q,post_exposure,10,25673,2,,,38,30,46,8,-8,-16,8,8,16,38_30_46,30,46,8,-8,-16,8,8,16,38_30_46,8_-8_-16,8_8_16,1,3,3,0,query_middle,concave,30.0,ref_lowdim,0,0.0,1,nan,nan,,dense_region,110_102_118,nan
sub_01,1,dense_left,img/object-9_120-levels_1D/object9F0Level69F1Level40.png,img/object-9_120-levels_1D/object9F0Level61F1Level40.png,img/object-9_120-levels_1D/object9F0Level93F1Level40.png,0,0,1362.4000000357628,q,post_exposure,11,28181,2,True,q,70,62,94,8,-24,-32,8,24,32,70_62_94,62,94,8,-24,-32,8,24,32,70_62_94,8_-24_-32,8_24_32,2,3,7,16,query_middle,across_convexity,62.0,ref_lowdim,0,0.0,1,ref_lowdim,ref_left,1.0,across_density_regions,78_54_86,ref_towards_dense
sub_01,1,dense_left,img/object-9_120-levels_1D/object9F0Level93F1Level40.png,img/object-9_120-levels_1D/object9F0Level85F1Level40.png,img/object-9_120-levels_1D/object9F0Level117F1Level40.png,0,0,1508.800000011921,q,post_exposure,12,30686,2,True,q,94,86,118,8,-24,-32,8,24,32,94_86_118,86,118,8,-24,-32,8,24,32,94_86_118,8_-24_-32,8_24_32,1,4,8,16,query_middle,convex,86.0,ref_lowdim,0,0.0,1,ref_lowdim,ref_left,1.0,sparse_region,54_30_62,ref_towards_dense
sub_01,1,dense_left,img/object-9_120-levels_1D/object9F0Level101F1Level40.png,img/object-9_120-levels_1D/object9F0Level117F1Level40.png,img/object-9_120-levels_1D/object9F0Level93F1Level40.png,0,0,1619.800000011921,q,post_exposure,13,33194,2,False,p,102,118,94,-16,8,24,16,8,24,102_118_94,94,118,8,-16,-24,8,16,24,102_94_118,8_-16_-24,8_16_24,2,4,10,8,query_middle,convex,118.0,ref_highdim,1,1.0,2,ref_lowdim,ref_right,0.0,sparse_region,46_30_54,ref_towards_dense
sub_01,1,dense_left,img/object-9_120-levels_1D/object9F0Level69F1Level40.png,img/object-9_120-levels_1D/object9F0Level93F1Level40.png,img/object-9_120-levels_1D/object9F0Level53F1Level40.png,0,0,1332.300000011921,p,post_exposure,14,35702,2,True,p,70,94,54,-24,16,40,24,16,40,70_94_54,54,94,16,-24,-40,16,24,40,70_54_94,16_-24_-40,16_24_40,2,5,10,8,query_middle,across_convexity,54.0,ref_lowdim,0,0.0,1,ref_lowdim,ref_right,1.0,across_density_regions,78_54_94,ref_towards_dense
sub_01,1,dense_left,img/object-9_120-levels_1D/object9F0Level109F1Level40.png,img/object-9_120-levels_1D/object9F0Level85F1Level40.png,img/object-9_120-levels_1D/object9F0Level117F1Level40.png,0,0,1296.800000011921,p,post_exposure,15,38209,2,True,p,110,86,118,24,-8,-32,24,8,32,110_86_118,86,118,24,-8,-32,24,8,32,110_86_118,24_-8_-32,8_24_32,2,5,9,16,query_middle,convex,118.0,ref_highdim,1,1.0,2,ref_highdim,ref_right,1.0,sparse_region,38_30_62,ref_towards_sparse
sub_01,1,dense_left,img/object-9_120-levels_1D/object9F0Level69F1Level40.png,img/object-9_120-levels_1D/object9F0Level77F1Level40.png,img/object-9_120-levels_1D/object9F0Level61F1Level40.png,0,0,1253.0,q,post_exposure,16,40716,2,,,70,78,62,-8,8,16,8,8,16,70_78_62,62,78,8,-8,-16,8,8,16,70_62_78,8_-8_-16,8_8_16,2,4,4,0,query_middle,across_convexity,78.0,ref_highdim,1,1.0,2,nan,nan,,across_density_regions,78_70_86,nan
sub_01,1,dense_left,img/object-9_120-levels_1D/object9F0Level53F1Level40.png,img/object-9_120-levels_1D/object9F0Level29F1Level40.png,img/object-9_120-levels_1D/object9F0Level77F1Level40.png,0,0,1149.300000011921,q,post_exposure,17,43223,2,,,54,30,78,24,-24,-48,24,24,48,54_30_78,30,78,24,-24,-48,24,24,48,54_30_78,24_-24_-48,24_24_48,2,6,6,0,query_middle,concave,30.0,ref_lowdim,0,0.0,1,nan,nan,,dense_region,94_70_118,nan
sub_01,1,dense_left,img/object-9_120-levels_1D/object9F0Level93F1Level40.png,img/object-9_120-levels_1D/object9F0Level77F1Level40.png,img/object-9_120-levels_1D/object9F0Level117F1Level40.png,0,0,1502.0,p,post_exposure,18,45730,2,False,q,94,78,118,16,-24,-40,16,24,40,94_78_118,78,118,16,-24,-40,16,24,40,94_78_118,16_-24_-40,16_24_40,2,6,11,8,query_middle,convex,118.0,ref_highdim,1,1.0,2,ref_lowdim,ref_left,0.0,sparse_region,54_30_70,ref_towards_dense
sub_01,1,dense_left,img/object-9_120-levels_1D/object9F0Level37F1Level40.png,img/object-9_120-levels_1D/object9F0Level61F1Level40.png,img/object-9_120-levels_1D/object9F0Level29F1Level40.png,0,0,953.5,p,post_exposure,19,48237,2,True,p,38,62,30,-24,8,32,24,8,32,38_62_30,30,62,8,-24,-32,8,24,32,38_30_62,8_-24_-32,8_24_32,2,5,10,16,query_middle,concave,30.0,ref_lowdim,0,0.0,1,ref_lowdim,ref_right,1.0,dense_region,110_86_118,ref_towards_dense
sub_01,1,dense_left,img/object-9_120-levels_1D/object9F0Level93F1Level40.png,img/object-9_120-levels_1D/object9F0Level117F1Level40.png,img/object-9_120-levels_1D/object9F0Level85F1Level40.png,0,0,1812.5,p,post_exposure,20,50744,2,True,p,94,118,86,-24,8,32,24,8,32,94_118_86,86,118,8,-24,-32,8,24,32,94_86_118,8_-24_-32,8_24_32,2,6,11,16,query_middle,convex,86.0,ref_lowdim,0,0.0,1,ref_lowdim,ref_right,1.0,sparse_region,54_30_62,ref_towards_dense
sub_01,1,dense_left,img/object-9_120-levels_1D/object9F0Level69F1Level40.png,img/object-9_120-levels_1D/object9F0Level61F1Level40.png,img/object-9_120-levels_1D/object9F0Level85F1Level40.png,0,0,1671.4000000357628,q,post_exposure,21,53251,2,True,q,70,62,86,8,-16,-24,8,16,24,70_62_86,62,86,8,-16,-24,8,16,24,70_62_86,8_-16_-24,8_16_24,2,5,11,8,query_middle,across_convexity,62.0,ref_lowdim,0,0.0,1,ref_lowdim,ref_left,1.0,across_density_regions,78_62_86,ref_towards_dense
sub_01,1,dense_left,img/object-9_120-levels_1D/object9F0Level37F1Level40.png,img/object-9_120-levels_1D/object9F0Level45F1Level40.png,img/object-9_120-levels_1D/object9F0Level29F1Level40.png,0,0,1581.199999988079,p,post_exposure,22,55758,2,,,38,46,30,-8,8,16,8,8,16,38_46_30,30,46,8,-8,-16,8,8,16,38_30_46,8_-8_-16,8_8_16,2,5,5,0,query_middle,concave,30.0,ref_lowdim,0,0.0,1,nan,nan,,dense_region,110_102_118,nan
sub_01,1,dense_left,img/object-9_120-levels_1D/object9F0Level69F1Level40.png,img/object-9_120-levels_1D/object9F0Level77F1Level40.png,img/object-9_120-levels_1D/object9F0Level45F1Level40.png,0,0,1837.5,q,post_exposure,23,58270,2,True,q,70,78,46,-8,24,32,8,24,32,70_78_46,46,78,24,-8,-32,24,8,32,70_46_78,24_-8_-32,8_24_32,2,6,12,16,query_middle,across_convexity,78.0,ref_highdim,1,1.0,2,ref_highdim,ref_left,1.0,across_density_regions,78_70_102,ref_towards_sparse
sub_01,1,dense_left,img/object-9_120-levels_1D/object9F0Level109F1Level40.png,img/object-9_120-levels_1D/object9F0Level117F1Level40.png,img/object-9_120-levels_1D/object9F0Level101F1Level40.png,0,0,1751.0,p,post_exposure,24,60777,2,,,110,118,102,-8,8,16,8,8,16,110_118_102,102,118,8,-8,-16,8,8,16,110_102_118,8_-8_-16,8_8_16,2,6,6,0,query_middle,convex,102.0,ref_lowdim,0,0.0,1,nan,nan,,sparse_region,38_30_46,nan
sub_01,1,dense_left,img/object-9_120-levels_1D/object9F0Level69F1Level40.png,img/object-9_120-levels_1D/object9F0Level85F1Level40.png,img/object-9_120-levels_1D/object9F0Level45F1Level40.png,0,0,1550.0,q,post_exposure,25,63284,2,True,q,70,86,46,-16,24,40,16,24,40,70_86_46,46,86,24,-16,-40,24,16,40,70_46_86,24_-16_-40,16_24_40,2,6,12,8,query_middle,across_convexity,86.0,ref_highdim,1,1.0,2,ref_highdim,ref_left,1.0,across_density_regions,78_62_102,ref_towards_sparse
sub_01,1,dense_left,img/object-9_120-levels_1D/object9F0Level37F1Level40.png,img/object-9_120-levels_1D/object9F0Level53F1Level40.png,img/object-9_120-levels_1D/object9F0Level29F1Level40.png,0,0,938.5,p,post_exposure,26,65791,2,True,p,38,54,30,-16,8,24,16,8,24,38_54_30,30,54,8,-16,-24,8,16,24,38_30_54,8_-16_-24,8_16_24,2,6,12,8,query_middle,concave,30.0,ref_lowdim,0,0.0,1,ref_lowdim,ref_right,1.0,dense_region,110_94_118,ref_towards_dense
sub_01,1,dense_left,img/object-9_120-levels_1D/object9F0Level69F1Level40.png,img/object-9_120-levels_1D/object9F0Level53F1Level40.png,img/object-9_120-levels_1D/object9F0Level85F1Level40.png,0,0,1241.0999999642372,q,post_exposure,27,68298,2,,,70,54,86,16,-16,-32,16,16,32,70_54_86,54,86,16,-16,-32,16,16,32,70_54_86,16_-16_-32,16_16_32,2,6,6,0,query_middle,across_convexity,54.0,ref_lowdim,0,0.0,1,nan,nan,,across_density_regions,78_62_94,nan
sub_02,1,dense_right,img/object-9_120-levels_1D/object9F0Level61F1Level40.png,img/object-9_120-levels_1D/object9F0Level37F1Level40.png,img/object-9_120-levels_1D/object9F0Level101F1Level40.png,0,0,1454.7000000029802,q,practice,1,3804,1,True,q,62,38,102,24,-40,-64,24,40,64,62_38_102,38,102,24,-40,-64,24,40,64,62_38_102,24_-40_-64,24_40_64,1,1,1,16,query_middle,concave,38.0,ref_lowdim,1,0.0,1,ref_lowdim,ref_left,1.0,sparse_region,62_38_102,ref_towards_sparse
sub_02,1,dense_right,img/object-9_120-levels_1D/object9F0Level109F1Level40.png,img/object-9_120-levels_1D/object9F0Level37F1Level40.png,img/object-9_120-levels_1D/object9F0Level117F1Level40.png,0,0,1167.5,p,practice,2,6344,1,True,p,110,38,118,72,-8,-80,72,8,80,110_38_118,38,118,72,-8,-80,72,8,80,110_38_118,72_-8_-80,8_72_80,1,1,1,64,query_middle,convex,118.0,ref_highdim,0,1.0,2,ref_highdim,ref_right,1.0,dense_region,110_38_118,ref_towards_dense
sub_02,1,dense_right,img/object-9_120-levels_1D/object9F0Level45F1Level40.png,img/object-9_120-levels_1D/object9F0Level109F1Level40.png,img/object-9_120-levels_1D/object9F0Level29F1Level40.png,0,0,1682.6000000089407,p,practice,3,8882,1,True,p,46,110,30,-64,16,80,64,16,80,46_110_30,30,110,16,-64,-80,16,64,80,46_30_110,16_-64_-80,16_64_80,1,1,1,48,query_middle,concave,30.0,ref_lowdim,1,0.0,1,ref_lowdim,ref_right,1.0,sparse_region,46_30_110,ref_towards_sparse
sub_02,1,dense_right,img/object-9_120-levels_1D/object9F0Level61F1Level40.png,img/object-9_120-levels_1D/object9F0Level29F1Level40.png,img/object-9_120-levels_1D/object9F0Level109F1Level40.png,0,0,862.6000000089407,q,practice,4,11413,1,True,q,62,30,110,32,-48,-80,32,48,80,62_30_110,30,110,32,-48,-80,32,48,80,62_30_110,32_-48_-80,32_48_80,1,1,1,16,query_middle,concave,30.0,ref_lowdim,1,0.0,1,ref_lowdim,ref_left,1.0,sparse_region,62_30_110,ref_towards_sparse
sub_02,1,dense_right,img/object-9_120-levels_1D/object9F0Level109F1Level40.png,img/object-9_120-levels_1D/object9F0Level117F1Level40.png,img/object-9_120-levels_1D/object9F0Level101F1Level40.png,0,0,2405.3999999910593,p,practice,5,14323,1,,,110,118,102,-8,8,16,8,8,16,110_118_102,102,118,8,-8,-16,8,8,16,110_102_118,8_-8_-16,8_8_16,1,1,1,0,query_middle,convex,102.0,ref_lowdim,1,0.0,1,nan,nan,,dense_region,110_102_118,nan
sub_02,1,dense_right,img/object-9_120-levels_1D/object9F0Level85F1Level40.png,img/object-9_120-levels_1D/object9F0Level117F1Level40.png,img/object-9_120-levels_1D/object9F0Level45F1Level40.png,0,0,2017.2000000029802,q,practice,6,16863,1,True,q,86,118,46,-32,40,72,32,40,72,86_118_46,46,118,40,-32,-72,40,32,72,86_46_118,40_-32_-72,32_40_72,1,1,1,8,query_middle,convex,118.0,ref_highdim,0,1.0,2,ref_highdim,ref_left,1.0,dense_region,86_46_118,ref_towards_dense
sub_02,1,dense_right,img/object-9_120-levels_1D/object9F0Level69F1Level40.png,img/object-9_120-levels_1D/object9F0Level117F1Level40.png,img/object-9_120-levels_1D/object9F0Level29F1Level40.png,0,0,1478.699999988079,q,practice,7,19383,1,False,p,70,118,30,-48,40,88,48,40,88,70_118_30,30,118,40,-48,-88,40,48,88,70_30_118,40_-48_-88,40_48_88,1,1,1,8,query_middle,across_convexity,118.0,ref_highdim,0,1.0,2,ref_lowdim,ref_right,0.0,sparse_region,70_30_118,ref_towards_sparse
sub_02,1,dense_right,img/object-9_120-levels_1D/object9F0Level45F1Level40.png,img/object-9_120-levels_1D/object9F0Level37F1Level40.png,img/object-9_120-levels_1D/object9F0Level109F1Level40.png,0,0,1593.1000000089407,q,practice,8,21923,1,True,q,46,38,110,8,-64,-72,8,64,72,46_38_110,38,110,8,-64,-72,8,64,72,46_38_110,8_-64_-72,8_64_72,1,1,1,56,query_middle,concave,38.0,ref_lowdim,1,0.0,1,ref_lowdim,ref_left,1.0,sparse_region,46_38_110,ref_towards_sparse
sub_02,1,dense_right,img/object-9_120-levels_1D/object9F0Level85F1Level40.png,img/object-9_120-levels_1D/object9F0Level45F1Level40.png,img/object-9_120-levels_1D/object9F0Level117F1Level40.png,0,0,2019.1000000089407,p,practice,9,24463,1,True,p,86,46,118,40,-32,-72,40,32,72,86_46_118,46,118,40,-32,-72,40,32,72,86_46_118,40_-32_-72,32_40_72,2,2,2,8,query_middle,convex,118.0,ref_highdim,0,1.0,2,ref_highdim,ref_right,1.0,dense_region,86_46_118,ref_towards_dense
sub_02,1,dense_right,img/object-9_120-levels_1D/object9F0Level45F1Level40.png,img/object-9_120-levels_1D/object9F0Level61F1Level40.png,img/object-9_120-levels_1D/object9F0Level37F1Level40.png,0,0,1292.0,p,practice,10,26969,1,True,p,46,62,38,-16,8,24,16,8,24,46_62_38,38,62,8,-16,-24,8,16,24,46_38_62,8_-16_-24,8_16_24,1,1,1,8,query_middle,concave,38.0,ref_lowdim,1,0.0,1,ref_lowdim,ref_right,1.0,sparse_region,46_38_62,ref_towards_sparse
sub_02,1,dense_right,img/object-9_120-levels_1D/object9F0Level109F1Level40.png,img/object-9_120-levels_1D/object9F0Level117F1Level40.png,img/object-9_120-levels_1D/object9F0Level37F1Level40.png,0,0,1067.2000000029802,q,practice,11,29493,1,True,q,110,118,38,-8,72,80,8,72,80,110_118_38,38,118,72,-8,-80,72,8,80,110_38_118,72_-8_-80,8_72_80,2,2,2,64,query_middle,convex,118.0,ref_highdim,0,1.0,2,ref_highdim,ref_left,1.0,dense_region,110_38_118,ref_towards_dense
sub_02,1,dense_right,img/object-9_120-levels_1D/object9F0Level45F1Level40.png,img/object-9_120-levels_1D/object9F0Level29F1Level40.png,img/object-9_120-levels_1D/object9F0Level109F1Level40.png,0,0,1585.8999999910593,q,practice,12,31999,1,True,q,46,30,110,16,-64,-80,16,64,80,46_30_110,30,110,16,-64,-80,16,64,80,46_30_110,16_-64_-80,16_64_80,2,2,2,48,query_middle,concave,30.0,ref_lowdim,1,0.0,1,ref_lowdim,ref_left,1.0,sparse_region,46_30_110,ref_towards_sparse
sub_02,1,dense_right,img/object-9_120-levels_1D/object9F0Level61F1Level40.png,img/object-9_120-levels_1D/object9F0Level101F1Level40.png,img/object-9_120-levels_1D/object9F0Level37F1Level40.png,0,0,1887.0,q,practice,13,34505,1,False,p,62,102,38,-40,24,64,40,24,64,62_102_38,38,102,24,-40,-64,24,40,64,62_38_102,24_-40_-64,24_40_64,2,2,2,16,query_middle,concave,102.0,ref_highdim,0,1.0,2,ref_lowdim,ref_right,0.0,sparse_region,62_38_102,ref_towards_sparse
sub_02,1,dense_right,img/object-9_120-levels_1D/object9F0Level37F1Level40.png,img/object-9_120-levels_1D/object9F0Level29F1Level40.png,img/object-9_120-levels_1D/object9F0Level45F1Level40.png,0,0,1836.6000000089407,q,practice,14,37013,1,,,38,30,46,8,-8,-16,8,8,16,38_30_46,30,46,8,-8,-16,8,8,16,38_30_46,8_-8_-16,8_8_16,1,2,2,0,query_middle,concave,30.0,ref_lowdim,1,0.0,1,nan,nan,,sparse_region,38_30_46,nan
sub_02,1,dense_right,img/object-9_120-levels_1D/object9F0Level45F1Level40.png,img/object-9_120-levels_1D/object9F0Level37F1Level40.png,img/object-9_120-levels_1D/object9F0Level61F1Level40.png,0,0,1576.7000000029802,q,practice,15,39533,1,True,q,46,38,62,8,-16,-24,8,16,24,46_38_62,38,62,8,-16,-24,8,16,24,46_38_62,8_-16_-24,8_16_24,2,2,2,8,query_middle,concave,38.0,ref_lowdim,1,0.0,1,ref_lowdim,ref_left,1.0,sparse_region,46_38_62,ref_towards_sparse
sub_02,1,dense_right,img/object-9_120-levels_1D/object9F0Level69F1Level40.png,img/object-9_120-levels_1D/object9F0Level29F1Level40.png,img/object-9_120-levels_1D/object9F0Level117F1Level40.png,0,0,1801.3999999910593,q,practice,16,42037,1,True,q,70,30,118,40,-48,-88,40,48,88,70_30_118,30,118,40,-48,-88,40,48,88,70_30_118,40_-48_-88,40_48_88,2,2,2,8,query_middle,across_convexity,30.0,ref_lowdim,1,0.0,1,ref_lowdim,ref_left,1.0,sparse_region,70_30_118,ref_towards_sparse
sub_02,1,dense_right,img/object-9_120-levels_1D/object9F0Level109F1Level40.png,img/object-9_120-levels_1D/object9F0Level101F1Level40.png,img/object-9_120-levels_1D/object9F0Level117F1Level40.png,0,0,1690.7000000029802,q,practice,17,44540,1,,,110,102,118,8,-8,-16,8,8,16,110_102_118,102,118,8,-8,-16,8,8,16,110_102_118,8_-8_-16,8_8_16,2,3,3,0,query_middle,convex,102.0,ref_lowdim,1,0.0,1,nan,nan,,dense_region,110_102_118,nan
sub_02,1,dense_right,img/object-9_120-levels_1D/object9F0Level61F1Level40.png,img/object-9_120-levels_1D/object9F0Level109F1Level40.png,img/object-9_120-levels_1D/object9F0Level29F1Level40.png,0,0,2074.7000000029802,q,practice,18,47119,1,False,p,62,110,30,-48,32,80,48,32,80,62_110_30,30,110,32,-48,-80,32,48,80,62_30_110,32_-48_-80,32_48_80,2,2,2,16,query_middle,concave,110.0,ref_highdim,0,1.0,2,ref_lowdim,ref_right,0.0,sparse_region,62_30_110,ref_towards_sparse
sub_02,1,dense_right,img/object-9_120-levels_1D/object9F0Level45F1Level40.png,img/object-9_120-levels_1D/object9F0Level109F1Level40.png,img/object-9_120-levels_1D/object9F0Level37F1Level40.png,0,0,1570.5,p,practice,19,49624,1,True,p,46,110,38,-64,8,72,64,8,72,46_110_38,38,110,8,-64,-72,8,64,72,46_38_110,8_-64_-72,8_64_72,2,2,2,56,query_middle,concave,38.0,ref_lowdim,1,0.0,1,ref_lowdim,ref_right,1.0,sparse_region,46_38_110,ref_towards_sparse
sub_02,1,dense_right,img/object-9_120-levels_1D/object9F0Level37F1Level40.png,img/object-9_120-levels_1D/object9F0Level45F1Level40.png,img/object-9_120-levels_1D/object9F0Level29F1Level40.png,0,0,1565.0,p,practice,20,52129,1,,,38,46,30,-8,8,16,8,8,16,38_46_30,30,46,8,-8,-16,8,8,16,38_30_46,8_-8_-16,8_8_16,2,4,4,0,query_middle,concave,30.0,ref_lowdim,1,0.0,1,nan,nan,,sparse_region,38_30_46,nan
sub_02,1,dense_right,img/object-9_120-levels_1D/object9F0Level45F1Level40.png,img/object-9_120-levels_1D/object9F0Level69F1Level40.png,img/object-9_120-levels_1D/object9F0Level29F1Level40.png,0,0,2634.199999988079,p,pre_exposure,1,4932,1,True,p,46,70,30,-24,16,40,24,16,40,46_70_30,30,70,16,-24,-40,16,24,40,46_30_70,16_-24_-40,16_24_40,1,1,1,8,query_middle,concave,30.0,ref_lowdim,1,0.0,1,ref_lowdim,ref_right,1.0,sparse_region,46_30_70,ref_towards_sparse
sub_02,1,dense_right,img/object-9_120-levels_1D/object9F0Level37F1Level40.png,img/object-9_120-levels_1D/object9F0Level29F1Level40.png,img/object-9_120-levels_1D/object9F0Level61F1Level40.png,0,0,813.7999999970198,q,pre_exposure,2,7462,1,True,q,38,30,62,8,-24,-32,8,24,32,38_30_62,30,62,8,-24,-32,8,24,32,38_30_62,8_-24_-32,8_24_32,1,1,1,16,query_middle,concave,30.0,ref_lowdim,1,0.0,1,ref_lowdim,ref_left,1.0,sparse_region,38_30_62,ref_towards_sparse
sub_02,1,dense_right,img/object-9_120-levels_1D/object9F0Level101F1Level40.png,img/object-9_120-levels_1D/object9F0Level117F1Level40.png,img/object-9_120-levels_1D/object9F0Level85F1Level40.png,0,0,1995.199999988079,q,pre_exposure,3,9993,1,,,102,118,86,-16,16,32,16,16,32,102_118_86,86,118,16,-16,-32,16,16,32,102_86_118,16_-16_-32,16_16_32,1,1,1,0,query_middle,convex,118.0,ref_highdim,0,1.0,2,nan,nan,,dense_region,102_86_118,nan
sub_02,1,dense_right,img/object-9_120-levels_1D/object9F0Level77F1Level40.png,img/object-9_120-levels_1D/object9F0Level85F1Level40.png,img/object-9_120-levels_1D/object9F0Level61F1Level40.png,0,0,2136.3999999910593,q,pre_exposure,4,12641,1,True,q,78,86,62,-8,16,24,8,16,24,78_86_62,62,86,16,-8,-24,16,8,24,78_62_86,16_-8_-24,8_16_24,1,1,1,8,query_middle,convex,86.0,ref_highdim,0,1.0,2,ref_highdim,ref_left,1.0,across_density_regions,78_62_86,ref_towards_dense
sub_02,1,dense_right,img/object-9_120-levels_1D/object9F0Level93F1Level40.png,img/object-9_120-levels_1D/object9F0Level85F1Level40.png,img/object-9_120-levels_1D/object9F0Level117F1Level40.png,0,0,1278.2999999970198,q,pre_exposure,5,15171,1,True,q,94,86,118,8,-24,-32,8,24,32,94_86_118,86,118,8,-24,-32,8,24,32,94_86_118,8_-24_-32,8_24_32,1,2,2,16,query_middle,convex,86.0,ref_lowdim,1,0.0,1,ref_lowdim,ref_left,1.0,dense_region,94_86_118,ref_towards_sparse
sub_02,1,dense_right,img/object-9_120-levels_1D/object9F0Level77F1Level40.png,img/object-9_120-levels_1D/object9F0Level53F1Level40.png,img/object-9_120-levels_1D/object9F0Level85F1Level40.png,0,0,983.5,p,pre_exposure,6,17691,1,True,p,78,54,86,24,-8,-32,24,8,32,78_54_86,54,86,24,-8,-32,24,8,32,78_54_86,24_-8_-32,8_24_32,1,1,3,16,query_middle,convex,86.0,ref_highdim,0,1.0,2,ref_highdim,ref_right,1.0,across_density_regions,78_54_86,ref_towards_dense
sub_02,1,dense_right,img/object-9_120-levels_1D/object9F0Level53F1Level40.png,img/object-9_120-levels_1D/object9F0Level29F1Level40.png,img/object-9_120-levels_1D/object9F0Level77F1Level40.png,0,0,1720.0,p,pre_exposure,7,20232,1,,,54,30,78,24,-24,-48,24,24,48,54_30_78,30,78,24,-24,-48,24,24,48,54_30_78,24_-24_-48,24_24_48,1,1,1,0,query_middle,concave,78.0,ref_highdim,0,1.0,2,nan,nan,,sparse_region,54_30_78,nan
sub_02,1,dense_right,img/object-9_120-levels_1D/object9F0Level37F1Level40.png,img/object-9_120-levels_1D/object9F0Level29F1Level40.png,img/object-9_120-levels_1D/object9F0Level45F1Level40.png,0,0,1632.0999999940395,q,pre_exposure,8,22761,1,,,38,30,46,8,-8,-16,8,8,16,38_30_46,30,46,8,-8,-16,8,8,16,38_30_46,8_-8_-16,8_8_16,1,1,1,0,query_middle,concave,30.0,ref_lowdim,1,0.0,1,nan,nan,,sparse_region,38_30_46,nan
sub_02,1,dense_right,img/object-9_120-levels_1D/object9F0Level45F1Level40.png,img/object-9_120-levels_1D/object9F0Level61F1Level40.png,img/object-9_120-levels_1D/object9F0Level29F1Level40.png,0,0,2108.4000000059605,p,pre_exposure,9,25377,1,,,46,62,30,-16,16,32,16,16,32,46_62_30,30,62,16,-16,-32,16,16,32,46_30_62,16_-16_-32,16_16_32,1,2,2,0,query_middle,concave,30.0,ref_lowdim,1,0.0,1,nan,nan,,sparse_region,46_30_62,nan
sub_02,1,dense_right,img/object-9_120-levels_1D/object9F0Level109F1Level40.png,img/object-9_120-levels_1D/object9F0Level85F1Level40.png,img/object-9_120-levels_1D/object9F0Level117F1Level40.png,0,0,1838.800000011921,p,pre_exposure,10,27891,1,True,p,110,86,118,24,-8,-32,24,8,32,110_86_118,86,118,24,-8,-32,24,8,32,110_86_118,24_-8_-32,8_24_32,1,2,4,16,query_middle,convex,118.0,ref_highdim,0,1.0,2,ref_highdim,ref_right,1.0,dense_region,110_86_118,ref_towards_dense
sub_02,1,dense_right,img/object-9_120-levels_1D/object9F0Level77F1Level40.png,img/object-9_120-levels_1D/object9F0Level93F1Level40.png,img/object-9_120-levels_1D/object9F0Level61F1Level40.png,0,0,2326.4000000059605,q,pre_exposure,11,30721,1,,,78,94,62,-16,16,32,16,16,32,78_94_62,62,94,16,-16,-32,16,16,32,78_62_94,16_-16_-32,16_16_32,1,3,3,0,query_middle,convex,94.0,ref_highdim,0,1.0,2,nan,nan,,across_density_regions,78_62_94,nan
sub_02,1,dense_right,img/object-9_120-levels_1D/object9F0Level101F1Level40.png,img/object-9_120-levels_1D/object9F0Level85F1Level40.png,img/object-9_120-levels_1D/object9F0Level117F1Level40.png,0,0,1737.1000000089407,q,pre_exposure,12,33244,1,,,102,86,118,16,-16,-32,16,16,32,102_86_118,86,118,16,-16,-32,16,16,32,102_86_118,16_-16_-32,16_16_32,2,4,4,0,query_middle,convex,86.0,ref_lowdim,1,0.0,1,nan,nan,,dense_region,102_86_118,nan
sub_02,1,dense_right,img/object-9_120-levels_1D/object9F0Level45F1Level40.png,img/object-9_120-levels_1D/object9F0Level29F1Level40.png,img/object-9_120-levels_1D/object9F0Level69F1Level40.png,0,0,1703.2000000029802,q,pre_exposure,13,35749,1,True,q,46,30,70,16,-24,-40,16,24,40,46_30_70,30,70,16,-24,-40,16,24,40,46_30_70,16_-24_-40,16_24_40,2,2,2,8,query_middle,concave,30.0,ref_lowdim,1,0.0,1,ref_lowdim,ref_left,1.0,sparse_region,46_30_70,ref_towards_sparse
sub_02,1,dense_right,img/object-9_120-levels_1D/object9F0Level93F1Level40.png,img/object-9_120-levels_1D/object9F0Level77F1Level40.png,img/object-9_120-levels_1D/object9F0Level117F1Level40.png,0,0,2283.3999999910593,q,pre_exposure,14,38536,1,True,q,94,78,118,16,-24,-40,16,24,40,94_78_118,78,118,16,-24,-40,16,24,40,94_78_118,16_-24_-40,16_24_40,1,3,3,8,query_middle,convex,78.0,ref_lowdim,1,0.0,1,ref_lowdim,ref_left,1.0,dense_region,94_78_118,ref_towards_sparse
sub_02,1,dense_right,img/object-9_120-levels_1D/object9F0Level77F1Level40.png,img/object-9_120-levels_1D/object9F0Level69F1Level40.png,img/object-9_120-levels_1D/object9F0Level101F1Level40.png,0,0,1420.6000000089407,q,pre_exposure,15,41041,1,True,q,78,70,102,8,-24,-32,8,24,32,78_70_102,70,102,8,-24,-32,8,24,32,78_70_102,8_-24_-32,8_24_32,1,3,5,16,query_middle,convex,70.0,ref_lowdim,1,0.0,1,ref_lowdim,ref_left,1.0,across_density_regions,78_70_102,ref_towards_sparse
sub_02,1,dense_right,img/object-9_120-levels_1D/object9F0Level93F1Level40.png,img/object-9_120-levels_1D/object9F0Level117F1Level40.png,img/object-9_120-levels_1D/object9F0Level85F1Level40.png,0,0,1482.5999999940395,p,pre_exposure,16,43545,1,True,p,94,118,86,-24,8,32,24,8,32,94_118_86,86,118,8,-24,-32,8,24,32,94_86_118,8_-24_-32,8_24_32,2,4,6,16,query_middle,convex,86.0,ref_lowdim,1,0.0,1,ref_lowdim,ref_right,1.0,dense_region,94_86_118,ref_towards_sparse
sub_02,1,dense_right,img/object-9_120-levels_1D/object9F0Level101F1Level40.png,img/object-9_120-levels_1D/object9F0Level93F1Level40.png,img/object-9_120-levels_1D/object9F0Level117F1Level40.png,0,0,1781.8999999910593,p,pre_exposure,17,46050,1,False,q,102,94,118,8,-16,-24,8,16,24,102_94_118,94,118,8,-16,-24,8,16,24,102_94_118,8_-16_-24,8_16_24,1,1,2,8,query_middle,convex,118.0,ref_highdim,0,1.0,2,ref_lowdim,ref_left,0.0,dense_region,102_94_118,ref_towards_sparse
sub_02,1,dense_right,img/object-9_120-levels_1D/object9F0Level109F1Level40.png,img/object-9_120-levels_1D/object9F0Level117F1Level40.png,img/object-9_120-levels_1D/object9F0Level93F1Level40.png,0,0,1967.7000000029802,q,pre_exposure,18,48555,1,True,q,110,118,94,-8,16,24,8,16,24,110_118_94,94,118,16,-8,-24,16,8,24,110_94_118,16_-8_-24,8_16_24,1,2,3,8,query_middle,convex,118.0,ref_highdim,0,1.0,2,ref_highdim,ref_left,1.0,dense_region,110_94_118,ref_towards_dense
sub_02,1,dense_right,img/object-9_120-levels_1D/object9F0Level53F1Level40.png,img/object-9_120-levels_1D/object9F0Level69F1Level40.png,img/object-9_120-levels_1D/object9F0Level29F1Level40.png,0,0,1772.5999999940395,q,pre_exposure,19,51060,1,True,q,54,70,30,-16,24,40,16,24,40,54_70_30,30,70,24,-16,-40,24,16,40,54_30_70,24_-16_-40,16_24_40,1,1,4,8,query_middle,concave,70.0,ref_highdim,0,1.0,2,ref_highdim,ref_left,1.0,sparse_region,54_30_70,ref_towards_dense
sub_02,1,dense_right,img/object-9_120-levels_1D/object9F0Level77F1Level40.png,img/object-9_120-levels_1D/object9F0Level53F1Level40.png,img/object-9_120-levels_1D/object9F0Level101F1Level40.png,0,0,2798.2999999970198,p,pre_exposure,20,54362,1,,,78,54,102,24,-24,-48,24,24,48,78_54_102,54,102,24,-24,-48,24,24,48,78_54_102,24_-24_-48,24_24_48,1,2,2,0,query_middle,convex,102.0,ref_highdim,0,1.0,2,nan,nan,,across_density_regions,78_54_102,nan
sub_02,1,dense_right,img/object-9_120-levels_1D/object9F0Level109F1Level40.png,img/object-9_120-levels_1D/object9F0Level93F1Level40.png,img/object-9_120-levels_1D/object9F0Level117F1Level40.png,0,0,1875.2999999970198,p,pre_exposure,21,56867,1,True,p,110,94,118,16,-8,-24,16,8,24,110_94_118,94,118,16,-8,-24,16,8,24,110_94_118,16_-8_-24,8_16_24,2,3,4,8,query_middle,convex,118.0,ref_highdim,0,1.0,2,ref_highdim,ref_right,1.0,dense_region,110_94_118,ref_towards_dense
sub_02,1,dense_right,img/object-9_120-levels_1D/object9F0Level77F1Level40.png,img/object-9_120-levels_1D/object9F0Level61F1Level40.png,img/object-9_120-levels_1D/object9F0Level93F1Level40.png,0,0,2181.7999999970198,q,pre_exposure,22,59553,1,,,78,62,94,16,-16,-32,16,16,32,78_62_94,62,94,16,-16,-32,16,16,32,78_62_94,16_-16_-32,16_16_32,2,5,5,0,query_middle,convex,62.0,ref_lowdim,1,0.0,1,nan,nan,,across_density_regions,78_62_94,nan
sub_02,1,dense_right,img/object-9_120-levels_1D/object9F0Level45F1Level40.png,img/object-9_120-levels_1D/object9F0Level29F1Level40.png,img/object-9_120-levels_1D/object9F0Level53F1Level40.png,0,0,2217.5,p,pre_exposure,23,62289,1,True,p,46,30,54,16,-8,-24,16,8,24,46_30_54,30,54,16,-8,-24,16,8,24,46_30_54,16_-8_-24,8_16_24,1,4,5,8,query_middle,concave,54.0,ref_highdim,0,1.0,2,ref_highdim,ref_right,1.0,sparse_region,46_30_54,ref_towards_dense
sub_02,1,dense_right,img/object-9_120-levels_1D/object9F0Level53F1Level40.png,img/object-9_120-levels_1D/object9F0Level77F1Level40.png,img/object-9_120-levels_1D/object9F0Level29F1Level40.png,0,0,1330.2999999970198,q,pre_exposure,24,64793,1,,,54,78,30,-24,24,48,24,24,48,54_78_30,30,78,24,-24,-48,24,24,48,54_30_78,24_-24_-48,24_24_48,2,3,3,0,query_middle,concave,78.0,ref_highdim,0,1.0,2,nan,nan,,sparse_region,54_30_78,nan
sub_02,1,dense_right,img/object-9_120-levels_1D/object9F0Level45F1Level40.png,img/object-9_120-levels_1D/object9F0Level29F1Level40.png,img/object-9_120-levels_1D/object9F0Level61F1Level40.png,0,0,1521.2000000029802,p,pre_exposure,25,67297,1,,,46,30,62,16,-16,-32,16,16,32,46_30_62,30,62,16,-16,-32,16,16,32,46_30_62,16_-16_-32,16_16_32,2,6,6,0,query_middle,concave,62.0,ref_highdim,0,1.0,2,nan,nan,,sparse_region,46_30_62,nan
sub_02,1,dense_right,img/object-9_120-levels_1D/object9F0Level77F1Level40.png,img/object-9_120-levels_1D/object9F0Level61F1Level40.png,img/object-9_120-levels_1D/object9F0Level101F1Level40.png,0,0,1755.300000011921,p,pre_exposure,26,69802,1,False,q,78,62,102,16,-24,-40,16,24,40,78_62_102,62,102,16,-24,-40,16,24,40,78_62_102,16_-24_-40,16_24_40,1,4,5,8,query_middle,convex,102.0,ref_highdim,0,1.0,2,ref_lowdim,ref_left,0.0,across_density_regions,78_62_102,ref_towards_sparse
sub_02,1,dense_right,img/object-9_120-levels_1D/object9F0Level101F1Level40.png,img/object-9_120-levels_1D/object9F0Level117F1Level40.png,img/object-9_120-levels_1D/object9F0Level93F1Level40.png,0,0,1561.7999999970198,p,pre_exposure,27,72305,1,True,p,102,118,94,-16,8,24,16,8,24,102_118_94,94,118,8,-16,-24,8,16,24,102_94_118,8_-16_-24,8_16_24,2,2,6,8,query_middle,convex,94.0,ref_lowdim,1,0.0,1,ref_lowdim,ref_right,1.0,dense_region,102_94_118,ref_towards_sparse
sub_02,1,dense_right,img/object-9_120-levels_1D/object9F0Level109F1Level40.png,img/object-9_120-levels_1D/object9F0Level117F1Level40.png,img/object-9_120-levels_1D/object9F0Level85F1Level40.png,0,0,1316.199999988079,q,pre_exposure,1,4711,2,True,q,110,118,86,-8,24,32,8,24,32,110_118_86,86,118,24,-8,-32,24,8,32,110_86_118,24_-8_-32,8_24_32,2,3,7,16,query_middle,convex,118.0,ref_highdim,0,1.0,2,ref_highdim,ref_left,1.0,dense_region,110_86_118,ref_towards_dense
sub_02,1,dense_right,img/object-9_120-levels_1D/object9F0Level37F1Level40.png,img/object-9_120-levels_1D/object9F0Level29F1Level40.png,img/object-9_120-levels_1D/object9F0Level53F1Level40.png,0,0,1469.0,q,pre_exposure,2,7231,2,True,q,38,30,54,8,-16,-24,8,16,24,38_30_54,30,54,8,-16,-24,8,16,24,38_30_54,8_-16_-24,8_16_24,1,3,7,8,query_middle,concave,30.0,ref_lowdim,1,0.0,1,ref_lowdim,ref_left,1.0,sparse_region,38_30_54,ref_towards_sparse
sub_02,1,dense_right,img/object-9_120-levels_1D/object9F0Level93F1Level40.png,img/object-9_120-levels_1D/object9F0Level117F1Level40.png,img/object-9_120-levels_1D/object9F0Level77F1Level40.png,0,0,2354.0,p,pre_exposure,3,10100,2,True,p,94,118,78,-24,16,40,24,16,40,94_118_78,78,118,16,-24,-40,16,24,40,94_78_118,16_-24_-40,16_24_40,2,5,6,8,query_middle,convex,78.0,ref_lowdim,1,0.0,1,ref_lowdim,ref_right,1.0,dense_region,94_78_118,ref_towards_sparse
sub_02,1,dense_right,img/object-9_120-levels_1D/object9F0Level77F1Level40.png,img/object-9_120-levels_1D/object9F0Level53F1Level40.png,img/object-9_120-levels_1D/object9F0Level93F1Level40.png,0,0,1655.0999999940395,p,pre_exposure,4,12631,2,True,p,78,54,94,24,-16,-40,24,16,40,78_54_94,54,94,24,-16,-40,24,16,40,78_54_94,24_-16_-40,16_24_40,1,2,7,8,query_middle,convex,94.0,ref_highdim,0,1.0,2,ref_highdim,ref_right,1.0,across_density_regions,78_54_94,ref_towards_dense
sub_02,1,dense_right,img/object-9_120-levels_1D/object9F0Level109F1Level40.png,img/object-9_120-levels_1D/object9F0Level101F1Level40.png,img/object-9_120-levels_1D/object9F0Level117F1Level40.png,0,0,2429.0,p,pre_exposure,5,15580,2,,,110,102,118,8,-8,-16,8,8,16,110_102_118,102,118,8,-8,-16,8,8,16,110_102_118,8_-8_-16,8_8_16,1,2,2,0,query_middle,convex,118.0,ref_highdim,0,1.0,2,nan,nan,,dense_region,110_102_118,nan
sub_02,1,dense_right,img/object-9_120-levels_1D/object9F0Level77F1Level40.png,img/object-9_120-levels_1D/object9F0Level85F1Level40.png,img/object-9_120-levels_1D/object9F0Level53F1Level40.png,0,0,1205.300000011921,q,pre_exposure,6,18120,2,True,q,78,86,54,-8,24,32,8,24,32,78_86_54,54,86,24,-8,-32,24,8,32,78_54_86,24_-8_-32,8_24_32,2,4,8,16,query_middle,convex,86.0,ref_highdim,0,1.0,2,ref_highdim,ref_left,1.0,across_density_regions,78_54_86,ref_towards_dense
sub_02,1,dense_right,img/object-9_120-levels_1D/object9F0Level101F1Level40.png,img/object-9_120-levels_1D/object9F0Level77F1Level40.png,img/object-9_120-levels_1D/object9F0Level117F1Level40.png,0,0,2166.2000000029802,p,pre_exposure,7,20801,2,True,p,102,78,118,24,-16,-40,24,16,40,102_78_118,78,118,24,-16,-40,24,16,40,102_78_118,24_-16_-40,16_24_40,1,3,8,8,query_middle,convex,118.0,ref_highdim,0,1.0,2,ref_highdim,ref_right,1.0,dense_region,102_78_118,ref_towards_dense
sub_02,1,dense_right,img/object-9_120-levels_1D/object9F0Level53F1Level40.png,img/object-9_120-levels_1D/object9F0Level29F1Level40.png,img/object-9_120-levels_1D/object9F0Level69F1Level40.png,0,0,1700.7000000029802,p,pre_exposure,8,23330,2,True,p,54,30,70,24,-16,-40,24,16,40,54_30_70,30,70,24,-16,-40,24,16,40,54_30_70,24_-16_-40,16_24_40,2,4,9,8,query_middle,concave,70.0,ref_highdim,0,1.0,2,ref_highdim,ref_right,1.0,sparse_region,54_30_70,ref_towards_dense
sub_02,1,dense_right,img/object-9_120-levels_1D/object9F0Level77F1Level40.png,img/object-9_120-levels_1D/object9F0Level69F1Level40.png,img/object-9_120-levels_1D/object9F0Level93F1Level40.png,0,0,1340.5,q,pre_exposure,9,25860,2,True,q,78,70,94,8,-16,-24,8,16,24,78_70_94,70,94,8,-16,-24,8,16,24,78_70_94,8_-16_-24,8_16_24,1,4,8,8,query_middle,convex,70.0,ref_lowdim,1,0.0,1,ref_lowdim,ref_left,1.0,across_density_regions,78_70_94,ref_towards_sparse
sub_02,1,dense_right,img/object-9_120-levels_1D/object9F0Level109F1Level40.png,img/object-9_120-levels_1D/object9F0Level117F1Level40.png,img/object-9_120-levels_1D/object9F0Level101F1Level40.png,0,0,2356.2000000029802,q,pre_exposure,10,28731,2,,,110,118,102,-8,8,16,8,8,16,110_118_102,102,118,8,-8,-16,8,8,16,110_102_118,8_-8_-16,8_8_16,2,3,3,0,query_middle,convex,118.0,ref_highdim,0,1.0,2,nan,nan,,dense_region,110_102_118,nan
sub_02,1,dense_right,img/object-9_120-levels_1D/object9F0Level45F1Level40.png,img/object-9_120-levels_1D/object9F0Level53F1Level40.png,img/object-9_120-levels_1D/object9F0Level29F1Level40.png,0,0,2202.199999988079,p,pre_exposure,11,31438,2,False,q,46,54,30,-8,16,24,8,16,24,46_54_30,30,54,16,-8,-24,16,8,24,46_30_54,16_-8_-24,8_16_24,2,5,9,8,query_middle,concave,30.0,ref_lowdim,1,0.0,1,ref_highdim,ref_left,0.0,sparse_region,46_30_54,ref_towards_dense
sub_02,1,dense_right,img/object-9_120-levels_1D/object9F0Level77F1Level40.png,img/object-9_120-levels_1D/object9F0Level93F1Level40.png,img/object-9_120-levels_1D/object9F0Level53F1Level40.png,0,0,2267.9000000059605,p,pre_exposure,12,34209,2,False,q,78,94,54,-16,24,40,16,24,40,78_94_54,54,94,24,-16,-40,24,16,40,78_54_94,24_-16_-40,16_24_40,2,5,10,8,query_middle,convex,54.0,ref_lowdim,1,0.0,1,ref_highdim,ref_left,0.0,across_density_regions,78_54_94,ref_towards_dense
sub_02,1,dense_right,img/object-9_120-levels_1D/object9F0Level37F1Level40.png,img/object-9_120-levels_1D/object9F0Level53F1Level40.png,img/object-9_120-levels_1D/object9F0Level29F1Level40.png,0,0,2257.8999999910593,p,pre_exposure,13,36970,2,True,p,38,54,30,-16,8,24,16,8,24,38_54_30,30,54,8,-16,-24,8,16,24,38_30_54,8_-16_-24,8_16_24,2,5,10,8,query_middle,concave,30.0,ref_lowdim,1,0.0,1,ref_lowdim,ref_right,1.0,sparse_region,38_30_54,ref_towards_sparse
sub_02,1,dense_right,img/object-9_120-levels_1D/object9F0Level101F1Level40.png,img/object-9_120-levels_1D/object9F0Level117F1Level40.png,img/object-9_120-levels_1D/object9F0Level77F1Level40.png,0,0,1522.7999999970198,q,pre_exposure,14,39476,2,True,q,102,118,78,-16,24,40,16,24,40,102_118_78,78,118,24,-16,-40,24,16,40,102_78_118,24_-16_-40,16_24_40,2,6,11,8,query_middle,convex,118.0,ref_highdim,0,1.0,2,ref_highdim,ref_left,1.0,dense_region,102_78_118,ref_towards_dense
sub_02,1,dense_right,img/object-9_120-levels_1D/object9F0Level77F1Level40.png,img/object-9_120-levels_1D/object9F0Level93F1Level40.png,img/object-9_120-levels_1D/object9F0Level69F1Level40.png,0,0,1525.1000000089407,p,pre_exposure,15,41995,2,True,p,78,94,70,-16,8,24,16,8,24,78_94_70,70,94,8,-16,-24,8,16,24,78_70_94,8_-16_-24,8_16_24,2,6,11,8,query_middle,convex,70.0,ref_lowdim,1,0.0,1,ref_lowdim,ref_right,1.0,across_density_regions,78_70_94,ref_towards_sparse
sub_02,1,dense_right,img/object-9_120-levels_1D/object9F0Level93F1Level40.png,img/object-9_120-levels_1D/object9F0Level117F1Level40.png,img/object-9_120-levels_1D/object9F0Level69F1Level40.png,0,0,2608.6000000089407,q,pre_exposure,16,45107,2,,,94,118,70,-24,24,48,24,24,48,94_118_70,70,118,24,-24,-48,24,24,48,94_70_118,24_-24_-48,24_24_48,1,4,4,0,query_middle,convex,118.0,ref_highdim,0,1.0,2,nan,nan,,dense_region,94_70_118,nan
sub_02,1,dense_right,img/object-9_120-levels_1D/object9F0Level77F1Level40.png,img/object-9_120-levels_1D/object9F0Level69F1Level40.png,img/object-9_120-levels_1D/object9F0Level85F1Level40.png,0,0,2137.1000000089407,p,pre_exposure,17,47749,2,,,78,70,86,8,-8,-16,8,8,16,78_70_86,70,86,8,-8,-16,8,8,16,78_70_86,8_-8_-16,8_8_16,1,4,4,0,query_middle,convex,86.0,ref_highdim,0,1.0,2,nan,nan,,across_density_regions,78_70_86,nan
sub_02,1,dense_right,img/object-9_120-levels_1D/object9F0Level53F1Level40.png,img/object-9_120-levels_1D/object9F0Level61F1Level40.png,img/object-9_120-levels_1D/object9F0Level29F1Level40.png,0,0,1898.7000000029802,p,pre_exposure,18,50255,2,False,q,54,62,30,-8,24,32,8,24,32,54_62_30,30,62,24,-8,-32,24,8,32,54_30_62,24_-8_-32,8_24_32,1,5,9,16,query_middle,concave,30.0,ref_lowdim,1,0.0,1,ref_highdim,ref_left,0.0,sparse_region,54_30_62,ref_towards_dense
sub_02,1,dense_right,img/object-9_120-levels_1D/object9F0Level77F1Level40.png,img/object-9_120-levels_1D/object9F0Level61F1Level40.png,img/object-9_120-levels_1D/object9F0Level85F1Level40.png,0,0,1822.0,q,pre_exposure,19,52760,2,False,p,78,62,86,16,-8,-24,16,8,24,78_62_86,62,86,16,-8,-24,16,8,24,78_62_86,16_-8_-24,8_16_24,2,6,12,8,query_middle,convex,62.0,ref_lowdim,1,0.0,1,ref_highdim,ref_right,0.0,across_density_regions,78_62_86,ref_towards_dense
sub_02,1,dense_right,img/object-9_120-levels_1D/object9F0Level53F1Level40.png,img/object-9_120-levels_1D/object9F0Level29F1Level40.png,img/object-9_120-levels_1D/object9F0Level61F1Level40.png,0,0,2251.5,p,pre_exposure,20,55515,2,True,p,54,30,62,24,-8,-32,24,8,32,54_30_62,30,62,24,-8,-32,24,8,32,54_30_62,24_-8_-32,8_24_32,2,6,10,16,query_middle,concave,62.0,ref_highdim,0,1.0,2,ref_highdim,ref_right,1.0,sparse_region,54_30_62,ref_towards_dense
sub_02,1,dense_right,img/object-9_120-levels_1D/object9F0Level77F1Level40.png,img/object-9_120-levels_1D/object9F0Level101F1Level40.png,img/object-9_120-levels_1D/object9F0Level61F1Level40.png,0,0,2292.0999999940395,p,pre_exposure,21,58311,2,True,p,78,102,62,-24,16,40,24,16,40,78_102_62,62,102,16,-24,-40,16,24,40,78_62_102,16_-24_-40,16_24_40,2,6,12,8,query_middle,convex,62.0,ref_lowdim,1,0.0,1,ref_lowdim,ref_right,1.0,across_density_regions,78_62_102,ref_towards_sparse
sub_02,1,dense_right,img/object-9_120-levels_1D/object9F0Level37F1Level40.png,img/object-9_120-levels_1D/object9F0Level45F1Level40.png,img/object-9_120-levels_1D/object9F0Level29F1Level40.png,0,0,1355.5,p,pre_exposure,22,60816,2,,,38,46,30,-8,8,16,8,8,16,38_46_30,30,46,8,-8,-16,8,8,16,38_30_46,8_-8_-16,8_8_16,2,5,5,0,query_middle,concave,30.0,ref_lowdim,1,0.0,1,nan,nan,,sparse_region,38_30_46,nan
sub_02,1,dense_right,img/object-9_120-levels_1D/object9F0Level77F1Level40.png,img/object-9_120-levels_1D/object9F0Level101F1Level40.png,img/object-9_120-levels_1D/object9F0Level69F1Level40.png,0,0,1590.2999999970198,p,pre_exposure,23,63330,2,True,p,78,102,70,-24,8,32,24,8,32,78_102_70,70,102,8,-24,-32,8,24,32,78_70_102,8_-24_-32,8_24_32,2,5,11,16,query_middle,convex,70.0,ref_lowdim,1,0.0,1,ref_lowdim,ref_right,1.0,across_density_regions,78_70_102,ref_towards_sparse
sub_02,1,dense_right,img/object-9_120-levels_1D/object9F0Level37F1Level40.png,img/object-9_120-levels_1D/object9F0Level61F1Level40.png,img/object-9_120-levels_1D/object9F0Level29F1Level40.png,0,0,1011.8000000119209,p,pre_exposure,24,65836,2,True,p,38,62,30,-24,8,32,24,8,32,38_62_30,30,62,8,-24,-32,8,24,32,38_30_62,8_-24_-32,8_24_32,2,6,12,16,query_middle,concave,30.0,ref_lowdim,1,0.0,1,ref_lowdim,ref_right,1.0,sparse_region,38_30_62,ref_towards_sparse
sub_02,1,dense_right,img/object-9_120-levels_1D/object9F0Level77F1Level40.png,img/object-9_120-levels_1D/object9F0Level85F1Level40.png,img/object-9_120-levels_1D/object9F0Level69F1Level40.png,0,0,1626.5999999940395,p,pre_exposure,25,68340,2,,,78,86,70,-8,8,16,8,8,16,78_86_70,70,86,8,-8,-16,8,8,16,78_70_86,8_-8_-16,8_8_16,2,6,6,0,query_middle,convex,70.0,ref_lowdim,1,0.0,1,nan,nan,,across_density_regions,78_70_86,nan
sub_02,1,dense_right,img/object-9_120-levels_1D/object9F0Level93F1Level40.png,img/object-9_120-levels_1D/object9F0Level69F1Level40.png,img/object-9_120-levels_1D/object9F0Level117F1Level40.png,0,0,1393.5,q,pre_exposure,26,70845,2,,,94,70,118,24,-24,-48,24,24,48,94_70_118,70,118,24,-24,-48,24,24,48,94_70_118,24_-24_-48,24_24_48,2,5,5,0,query_middle,convex,70.0,ref_lowdim,1,0.0,1,nan,nan,,dense_region,94_70_118,nan
sub_02,1,dense_right,img/object-9_120-levels_1D/object9F0Level77F1Level40.png,img/object-9_120-levels_1D/object9F0Level101F1Level40.png,img/object-9_120-levels_1D/object9F0Level53F1Level40.png,0,0,1298.9000000059605,p,pre_exposure,27,73365,2,,,78,102,54,-24,24,48,24,24,48,78_102_54,54,102,24,-24,-48,24,24,48,78_54_102,24_-24_-48,24_24_48,2,6,6,0,query_middle,convex,54.0,ref_lowdim,1,0.0,1,nan,nan,,across_density_regions,78_54_102,nan
sub_02,1,dense_right,img/object-9_120-levels_1D/object9F0Level109F1Level40.png,img/object-9_120-levels_1D/object9F0Level101F1Level40.png,img/object-9_120-levels_1D/object9F0Level117F1Level40.png,0,0,3471.7999999970198,p,post_exposure,1,6336,1,,,110,102,118,8,-8,-16,8,8,16,110_102_118,102,118,8,-8,-16,8,8,16,110_102_118,8_-8_-16,8_8_16,1,1,1,0,query_middle,convex,118.0,ref_highdim,0,1.0,2,nan,nan,,dense_region,110_102_118,nan
sub_02,1,dense_right,img/object-9_120-levels_1D/object9F0Level37F1Level40.png,img/object-9_120-levels_1D/object9F0Level53F1Level40.png,img/object-9_120-levels_1D/object9F0Level29F1Level40.png,0,0,1207.5,p,post_exposure,2,8855,1,True,p,38,54,30,-16,8,24,16,8,24,38_54_30,30,54,8,-16,-24,8,16,24,38_30_54,8_-16_-24,8_16_24,1,1,1,8,query_middle,concave,30.0,ref_lowdim,1,0.0,1,ref_lowdim,ref_right,1.0,sparse_region,38_30_54,ref_towards_sparse
sub_02,1,dense_right,img/object-9_120-levels_1D/object9F0Level53F1Level40.png,img/object-9_120-levels_1D/object9F0Level69F1Level40.png,img/object-9_120-levels_1D/object9F0Level29F1Level40.png,0,0,1181.0,q,post_exposure,3,11376,1,True,q,54,70,30,-16,24,40,16,24,40,54_70_30,30,70,24,-16,-40,24,16,40,54_30_70,24_-16_-40,16_24_40,1,1,1,8,query_middle,concave,70.0,ref_highdim,0,1.0,2,ref_highdim,ref_left,1.0,sparse_region,54_30_70,ref_towards_dense
sub_02,1,dense_right,img/object-9_120-levels_1D/object9F0Level45F1Level40.png,img/object-9_120-levels_1D/object9F0Level61F1Level40.png,img/object-9_120-levels_1D/object9F0Level29F1Level40.png,0,0,1275.6000000089407,q,post_exposure,4,13905,1,,,46,62,30,-16,16,32,16,16,32,46_62_30,30,62,16,-16,-32,16,16,32,46_30_62,16_-16_-32,16_16_32,1,1,1,0,query_middle,concave,62.0,ref_highdim,0,1.0,2,nan,nan,,sparse_region,46_30_62,nan
sub_02,1,dense_right,img/object-9_120-levels_1D/object9F0Level77F1Level40.png,img/object-9_120-levels_1D/object9F0Level61F1Level40.png,img/object-9_120-levels_1D/object9F0Level101F1Level40.png,0,0,1977.8999999910593,q,post_exposure,5,16435,1,True,q,78,62,102,16,-24,-40,16,24,40,78_62_102,62,102,16,-24,-40,16,24,40,78_62_102,16_-24_-40,16_24_40,1,1,2,8,query_middle,convex,62.0,ref_lowdim,1,0.0,1,ref_lowdim,ref_left,1.0,across_density_regions,78_62_102,ref_towards_sparse
sub_02,1,dense_right,img/object-9_120-levels_1D/object9F0Level109F1Level40.png,img/object-9_120-levels_1D/object9F0Level117F1Level40.png,img/object-9_120-levels_1D/object9F0Level101F1Level40.png,0,0,1706.7000000029802,q,post_exposure,6,18975,1,,,110,118,102,-8,8,16,8,8,16,110_118_102,102,118,8,-8,-16,8,8,16,110_102_118,8_-8_-16,8_8_16,2,2,2,0,query_middle,convex,118.0,ref_highdim,0,1.0,2,nan,nan,,dense_region,110_102_118,nan
sub_02,1,dense_right,img/object-9_120-levels_1D/object9F0Level37F1Level40.png,img/object-9_120-levels_1D/object9F0Level61F1Level40.png,img/object-9_120-levels_1D/object9F0Level29F1Level40.png,0,0,835.1000000089407,p,post_exposure,7,21485,1,True,p,38,62,30,-24,8,32,24,8,32,38_62_30,30,62,8,-24,-32,8,24,32,38_30_62,8_-24_-32,8_24_32,1,1,1,16,query_middle,concave,30.0,ref_lowdim,1,0.0,1,ref_lowdim,ref_right,1.0,sparse_region,38_30_62,ref_towards_sparse
sub_02,1,dense_right,img/object-9_120-levels_1D/object9F0Level53F1Level40.png,img/object-9_120-levels_1D/object9F0Level29F1Level40.png,img/object-9_120-levels_1D/object9F0Level77F1Level40.png,0,0,1029.699999988079,q,post_exposure,8,24025,1,,,54,30,78,24,-24,-48,24,24,48,54_30_78,30,78,24,-24,-48,24,24,48,54_30_78,24_-24_-48,24_24_48,1,1,1,0,query_middle,concave,30.0,ref_lowdim,1,0.0,1,nan,nan,,sparse_region,54_30_78,nan
sub_02,1,dense_right,img/object-9_120-levels_1D/object9F0Level77F1Level40.png,img/object-9_120-levels_1D/object9F0Level61F1Level40.png,img/object-9_120-levels_1D/object9F0Level93F1Level40.png,0,0,1513.2000000029802,q,post_exposure,9,26546,1,,,78,62,94,16,-16,-32,16,16,32,78_62_94,62,94,16,-16,-32,16,16,32,78_62_94,16_-16_-32,16_16_32,1,2,2,0,query_middle,convex,62.0,ref_lowdim,1,0.0,1,nan,nan,,across_density_regions,78_62_94,nan
sub_02,1,dense_right,img/object-9_120-levels_1D/object9F0Level53F1Level40.png,img/object-9_120-levels_1D/object9F0Level61F1Level40.png,img/object-9_120-levels_1D/object9F0Level29F1Level40.png,0,0,841.3999999910593,q,post_exposure,10,29056,1,True,q,54,62,30,-8,24,32,8,24,32,54_62_30,30,62,24,-8,-32,24,8,32,54_30_62,24_-8_-32,8_24_32,1,1,2,16,query_middle,concave,62.0,ref_highdim,0,1.0,2,ref_highdim,ref_left,1.0,sparse_region,54_30_62,ref_towards_dense
sub_02,1,dense_right,img/object-9_120-levels_1D/object9F0Level93F1Level40.png,img/object-9_120-levels_1D/object9F0Level85F1Level40.png,img/object-9_120-levels_1D/object9F0Level117F1Level40.png,0,0,1014.7999999970198,q,post_exposure,11,31560,1,True,q,94,86,118,8,-24,-32,8,24,32,94_86_118,86,118,8,-24,-32,8,24,32,94_86_118,8_-24_-32,8_24_32,1,2,3,16,query_middle,convex,86.0,ref_lowdim,1,0.0,1,ref_lowdim,ref_left,1.0,dense_region,94_86_118,ref_towards_sparse
sub_02,1,dense_right,img/object-9_120-levels_1D/object9F0Level77F1Level40.png,img/object-9_120-levels_1D/object9F0Level53F1Level40.png,img/object-9_120-levels_1D/object9F0Level85F1Level40.png,0,0,1873.0,p,post_exposure,12,34065,1,True,p,78,54,86,24,-8,-32,24,8,32,78_54_86,54,86,24,-8,-32,24,8,32,78_54_86,24_-8_-32,8_24_32,1,2,4,16,query_middle,convex,86.0,ref_highdim,0,1.0,2,ref_highdim,ref_right,1.0,across_density_regions,78_54_86,ref_towards_dense
sub_02,1,dense_right,img/object-9_120-levels_1D/object9F0Level101F1Level40.png,img/object-9_120-levels_1D/object9F0Level93F1Level40.png,img/object-9_120-levels_1D/object9F0Level117F1Level40.png,0,0,1405.7999999970198,q,post_exposure,13,36571,1,True,q,102,94,118,8,-16,-24,8,16,24,102_94_118,94,118,8,-16,-24,8,16,24,102_94_118,8_-16_-24,8_16_24,1,2,2,8,query_middle,convex,94.0,ref_lowdim,1,0.0,1,ref_lowdim,ref_left,1.0,dense_region,102_94_118,ref_towards_sparse
sub_02,1,dense_right,img/object-9_120-levels_1D/object9F0Level77F1Level40.png,img/object-9_120-levels_1D/object9F0Level101F1Level40.png,img/object-9_120-levels_1D/object9F0Level53F1Level40.png,0,0,1761.0999999940395,q,post_exposure,14,39091,1,,,78,102,54,-24,24,48,24,24,48,78_102_54,54,102,24,-24,-48,24,24,48,78_54_102,24_-24_-48,24_24_48,1,2,2,0,query_middle,convex,102.0,ref_highdim,0,1.0,2,nan,nan,,across_density_regions,78_54_102,nan
sub_02,1,dense_right,img/object-9_120-levels_1D/object9F0Level93F1Level40.png,img/object-9_120-levels_1D/object9F0Level117F1Level40.png,img/object-9_120-levels_1D/object9F0Level69F1Level40.png,0,0,1690.6000000089407,q,post_exposure,15,41596,1,,,94,118,70,-24,24,48,24,24,48,94_118_70,70,118,24,-24,-48,24,24,48,94_70_118,24_-24_-48,24_24_48,1,3,3,0,query_middle,convex,118.0,ref_highdim,0,1.0,2,nan,nan,,dense_region,94_70_118,nan
sub_02,1,dense_right,img/object-9_120-levels_1D/object9F0Level77F1Level40.png,img/object-9_120-levels_1D/object9F0Level69F1Level40.png,img/object-9_120-levels_1D/object9F0Level93F1Level40.png,0,0,1995.7999999970198,q,post_exposure,16,44100,1,True,q,78,70,94,8,-16,-24,8,16,24,78_70_94,70,94,8,-16,-24,8,16,24,78_70_94,8_-16_-24,8_16_24,1,3,3,8,query_middle,convex,70.0,ref_lowdim,1,0.0,1,ref_lowdim,ref_left,1.0,across_density_regions,78_70_94,ref_towards_sparse
sub_02,1,dense_right,img/object-9_120-levels_1D/object9F0Level53F1Level40.png,img/object-9_120-levels_1D/object9F0Level77F1Level40.png,img/object-9_120-levels_1D/object9F0Level29F1Level40.png,0,0,1458.5,p,post_exposure,17,46604,1,,,54,78,30,-24,24,48,24,24,48,54_78_30,30,78,24,-24,-48,24,24,48,54_30_78,24_-24_-48,24_24_48,2,4,4,0,query_middle,concave,30.0,ref_lowdim,1,0.0,1,nan,nan,,sparse_region,54_30_78,nan
sub_02,1,dense_right,img/object-9_120-levels_1D/object9F0Level101F1Level40.png,img/object-9_120-levels_1D/object9F0Level77F1Level40.png,img/object-9_120-levels_1D/object9F0Level117F1Level40.png,0,0,1688.9000000059605,p,post_exposure,18,49111,1,True,p,102,78,118,24,-16,-40,24,16,40,102_78_118,78,118,24,-16,-40,24,16,40,102_78_118,24_-16_-40,16_24_40,1,2,3,8,query_middle,convex,118.0,ref_highdim,0,1.0,2,ref_highdim,ref_right,1.0,dense_region,102_78_118,ref_towards_dense
